##NAMES=Calcite
##RRUFFID=R050128
##IDEAL CHEMISTRY=CaCO_3_
##LOCALITY=Tie Siding, Albany County, Wyoming, USA
##OWNER=RRUFF
##SOURCE=Dave Bunk Minerals
##DESCRIPTION=Pseudomorph after aragonite, not single crystal. Trace of aragonite still present.
##STATUS=The identification of this mineral has been confirmed by X-ray diffraction and chemical analysis
##URL=rruff.info/R050128
##MEASURED CHEMISTRY=Ca_1.00_CO_3_
##CELL PARAMETERS=a: 4.99013(8) b: 4.99013(8) c: 17.0690(3) alpha: 90. beta: 90. gamma: 120. volume: 368.09(1) crystal system: hexagonal
5.000, 0.000
5.010, 0.035
5.020, 5.773
5.030, 3.733
5.040, 7.791
5.050, 8.862
5.060, 5.150
5.070, 10.346
5.080, 9.528
5.090, 5.622
5.100, 4.731
5.110, 3.278
5.120, 8.213
5.130, 5.197
5.140, 5.170
5.150, 2.142
5.160, 8.108
5.170, 13.071
5.180, 9.031
5.190, 15.444
5.200, 7.379
5.210, 1.684
5.220, 8.255
5.230, 4.196
5.240, 13.139
5.250, 19.747
5.260, 7.669
5.270, 4.596
5.280, 5.526
5.290, 8.460
5.300, 2.397
5.310, 4.398
5.320, 10.340
5.330, 6.285
5.340, 12.232
5.350, 9.183
5.360, 8.135
5.370, 0.909
5.380, 8.048
5.390, 11.008
5.400, 3.970
5.410, 9.934
5.420, 8.899
5.430, 11.867
5.440, 8.836
5.450, 8.806
5.460, 7.778
5.470, 7.752
5.480, 1.727
5.490, 2.296
5.500, 2.681
5.510, 12.669
5.520, 7.650
5.530, 12.632
5.540, 17.615
5.550, 18.600
5.560, 5.590
5.570, 7.581
5.580, 12.573
5.590, 1.566
5.600, 4.560
5.610, 15.554
5.620, 0.451
5.630, 13.545
5.640, 5.542
5.650, 10.539
5.660, 5.536
5.670, 15.535
5.680, 3.536
5.690, 5.537
5.700, 7.539
5.710, 8.540
5.720, 3.542
5.730, 6.544
5.740, 10.549
5.750, 6.553
5.760, 14.558
5.770, 2.564
5.780, 8.569
5.790, 7.574
5.800, 2.580
5.810, 9.585
5.820, 10.592
5.830, 11.598
5.840, 2.606
5.850, 1.612
5.860, 6.619
5.870, 1.626
5.880, 7.633
5.890, 6.641
5.900, 9.649
5.910, 11.658
5.920, 0.667
5.930, 8.679
5.940, 10.691
5.950, 14.704
5.960, 18.716
5.970, 8.730
5.980, 12.743
5.990, 13.757
6.000, 2.774
6.010, 0.209
6.020, 7.809
6.030, 0.826
6.040, 11.844
6.050, 3.863
6.060, 13.881
6.070, 10.900
6.080, 9.919
6.090, 10.939
6.100, 3.052
6.110, 4.228
6.120, 9.246
6.130, 17.264
6.140, 12.282
6.150, 20.300
6.160, 13.319
6.170, 10.338
6.180, 12.357
6.190, 15.377
6.200, 14.413
6.210, 11.415
6.220, 6.437
6.230, 11.459
6.240, 14.481
6.250, 18.504
6.260, 12.526
6.270, 6.547
6.280, 13.568
6.290, 19.589
6.300, 14.610
6.310, 4.626
6.320, 5.643
6.330, 12.658
6.340, 13.826
6.350, 11.839
6.360, 19.855
6.370, 17.871
6.380, 5.888
6.390, 22.923
6.400, 3.939
6.410, 16.814
6.420, 14.906
6.430, 17.923
6.440, 11.941
6.450, 6.956
6.460, 13.104
6.470, 8.120
6.480, 17.142
6.490, 14.160
6.500, 12.178
6.510, 19.200
6.520, 16.219
6.530, 13.239
6.540, 18.260
6.550, 20.280
6.560, 10.301
6.570, 18.249
6.580, 14.270
6.590, 13.292
6.600, 19.315
6.610, 18.337
6.620, 11.360
6.630, 14.384
6.640, 9.410
6.650, 9.434
6.660, 13.487
6.670, 23.512
6.680, 3.536
6.690, 9.420
6.700, 15.445
6.710, 10.470
6.720, 15.496
6.730, 26.521
6.740, 12.547
6.750, 5.574
6.760, 10.600
6.770, 13.626
6.780, 16.653
6.790, 10.691
6.800, 21.729
6.810, 17.756
6.820, 8.767
6.830, 13.795
6.840, 14.829
6.850, 13.048
6.860, 8.076
6.870, 8.105
6.880, 6.133
6.890, 8.162
6.900, 17.191
6.910, 9.220
6.920, 5.249
6.930, 17.278
6.940, 2.307
6.950, 16.337
6.960, 11.366
6.970, 6.396
6.980, 16.471
6.990, 3.733
7.000, 3.763
7.010, 10.793
7.020, 12.823
7.030, 9.853
7.040, 4.883
7.050, 1.914
7.060, 10.944
7.070, 4.974
7.080, 4.005
7.090, 9.035
7.100, 1.066
7.110, 7.097
7.120, 4.128
7.130, 6.186
7.140, 12.217
7.150, 5.248
7.160, 7.279
7.170, 1.310
7.180, 8.341
7.190, 4.373
7.200, 1.596
7.210, 11.432
7.220, 2.537
7.230, 8.494
7.240, 9.524
7.250, 4.555
7.260, 11.586
7.270, 7.616
7.280, 11.647
7.290, 6.678
7.300, 7.708
7.310, 3.738
7.320, 9.768
7.330, 7.797
7.340, 6.827
7.350, 10.857
7.360, 4.886
7.370, 4.916
7.380, 3.946
7.390, 10.975
7.400, 4.005
7.410, 6.035
7.420, 4.065
7.430, 4.157
7.440, 7.187
7.450, 10.217
7.460, 3.247
7.470, 8.277
7.480, 4.427
7.490, 4.457
7.500, 0.487
7.510, 0.517
7.520, 1.547
7.530, 2.424
7.540, 11.605
7.550, 13.633
7.560, 5.662
7.570, 8.690
7.580, 0.281
7.590, 8.802
7.600, 8.830
7.610, 1.141
7.620, 7.887
7.630, 1.916
7.640, 4.944
7.650, 2.028
7.660, 3.999
7.670, 0.026
7.680, 2.171
7.690, 5.198
7.700, 0.225
7.710, 9.306
7.720, 8.449
7.730, 2.475
7.740, 8.502
7.750, 3.529
7.760, 14.555
7.770, 4.582
7.780, 7.609
7.790, 10.636
7.800, 2.663
7.810, 6.690
7.820, 3.717
7.830, 0.743
7.840, 8.770
7.850, 0.204
7.860, 12.823
7.870, 3.849
7.880, 6.875
7.890, 4.902
7.900, 4.931
7.910, 8.957
7.920, 6.984
7.930, 10.010
7.940, 2.037
7.950, 3.063
7.960, 10.089
7.970, 6.115
7.980, 0.141
7.990, 0.167
8.000, 8.193
8.010, 7.218
8.020, 3.244
8.030, 0.269
8.040, 2.706
8.050, 6.318
8.060, 5.446
8.070, 12.470
8.080, 7.493
8.090, 9.516
8.100, 4.540
8.110, 8.563
8.120, 8.586
8.130, 5.610
8.140, 2.634
8.150, 4.658
8.160, 3.681
8.170, 0.296
8.180, 3.274
8.190, 9.747
8.200, 3.767
8.210, 5.789
8.220, 11.809
8.230, 5.829
8.240, 4.849
8.250, 4.869
8.260, 4.889
8.270, 2.908
8.280, 5.928
8.290, 5.948
8.300, 3.968
8.310, 7.987
8.320, 0.006
8.330, 10.025
8.340, 2.044
8.350, 6.063
8.360, 7.081
8.370, 3.100
8.380, 6.214
8.390, 13.232
8.400, 11.163
8.410, 6.182
8.420, 6.085
8.430, 6.102
8.440, 2.120
8.450, 5.138
8.460, 14.155
8.470, 9.173
8.480, 5.190
8.490, 5.207
8.500, 6.224
8.510, 6.241
8.520, 3.258
8.530, 11.275
8.540, 8.292
8.550, 3.309
8.560, 2.325
8.570, 5.342
8.580, 8.382
8.590, 5.398
8.600, 10.414
8.610, 7.430
8.620, 0.554
8.630, 4.461
8.640, 5.476
8.650, 7.491
8.660, 5.506
8.670, 1.479
8.680, 5.535
8.690, 4.549
8.700, 10.560
8.710, 7.572
8.720, 5.585
8.730, 5.447
8.740, 13.460
8.750, 6.473
8.760, 2.486
8.770, 9.499
8.780, 0.507
8.790, 2.505
8.800, 4.517
8.810, 3.455
8.820, 12.466
8.830, 12.478
8.840, 1.490
8.850, 5.370
8.860, 10.382
8.870, 1.612
8.880, 8.398
8.890, 9.409
8.900, 0.585
8.910, 1.575
8.920, 6.433
8.930, 5.442
8.940, 3.450
8.950, 9.459
8.960, 6.467
8.970, 4.475
8.980, 1.483
8.990, 15.515
9.000, 2.523
9.010, 4.531
9.020, 1.539
9.030, 3.544
9.040, 2.551
9.050, 1.530
9.060, 9.537
9.070, 6.545
9.080, 3.552
9.090, 0.560
9.100, 9.568
9.110, 4.576
9.120, 7.584
9.130, 5.591
9.140, 11.599
9.150, 8.607
9.160, 2.615
9.170, 6.623
9.180, 10.619
9.190, 10.617
9.200, 2.624
9.210, 6.632
9.220, 1.640
9.230, 5.640
9.240, 8.457
9.250, 1.535
9.260, 4.471
9.270, 6.479
9.280, 10.486
9.290, 7.493
9.300, 5.500
9.310, 8.626
9.320, 2.633
9.330, 0.641
9.340, 3.648
9.350, 2.656
9.360, 6.663
9.370, 5.625
9.380, 8.400
9.390, 2.407
9.400, 0.414
9.410, 3.421
9.420, 4.428
9.430, 3.435
9.440, 10.442
9.450, 5.449
9.460, 5.456
9.470, 3.463
9.480, 10.469
9.490, 0.476
9.500, 3.483
9.510, 4.489
9.520, 2.468
9.530, 1.474
9.540, 5.481
9.550, 5.487
9.560, 6.493
9.570, 1.500
9.580, 6.505
9.590, 9.510
9.600, 0.516
9.610, 0.478
9.620, 4.528
9.630, 2.534
9.640, 4.540
9.650, 8.546
9.660, 7.551
9.670, 8.557
9.680, 5.563
9.690, 9.569
9.700, 9.575
9.710, 9.581
9.720, 4.587
9.730, 5.593
9.740, 6.599
9.750, 0.605
9.760, 8.611
9.770, 0.383
9.780, 1.622
9.790, 2.628
9.800, 9.634
9.810, 4.639
9.820, 7.582
9.830, 5.587
9.840, 2.593
9.850, 2.598
9.860, 13.604
9.870, 1.488
9.880, 4.493
9.890, 0.499
9.900, 0.504
9.910, 8.509
9.920, 3.539
9.930, 5.545
9.940, 7.551
9.950, 0.557
9.960, 3.563
9.970, 2.569
9.980, 0.520
9.990, 4.526
10.000, 11.532
10.010, 9.538
10.020, 7.545
10.030, 6.551
10.040, 3.557
10.050, 5.564
10.060, 0.571
10.070, 11.459
10.080, 2.466
10.090, 7.490
10.100, 3.443
10.110, 0.334
10.120, 0.341
10.130, 4.348
10.140, 4.354
10.150, 4.361
10.160, 5.368
10.170, 11.375
10.180, 0.618
10.190, 4.389
10.200, 3.396
10.210, 5.403
10.220, 2.410
10.230, 3.417
10.240, 4.424
10.250, 13.439
10.260, 9.446
10.270, 8.453
10.280, 11.655
10.290, 1.659
10.300, 7.666
10.310, 2.674
10.320, 11.681
10.330, 4.688
10.340, 1.695
10.350, 4.831
10.360, 7.838
10.370, 10.846
10.380, 2.853
10.390, 1.860
10.400, 2.868
10.410, 0.876
10.420, 5.884
10.430, 4.951
10.440, 13.960
10.450, 1.863
10.460, 9.056
10.470, 1.065
10.480, 7.073
10.490, 5.082
10.500, 1.908
10.510, 6.099
10.520, 5.231
10.530, 13.237
10.540, 8.244
10.550, 6.252
10.560, 2.259
10.570, 6.267
10.580, 4.277
10.590, 9.285
10.600, 11.293
10.610, 1.301
10.620, 6.310
10.630, 3.318
10.640, 10.328
10.650, 7.336
10.660, 8.345
10.670, 6.353
10.680, 6.362
10.690, 10.370
10.700, 3.378
10.710, 8.387
10.720, 8.395
10.730, 10.404
10.740, 9.412
10.750, 2.421
10.760, 9.429
10.770, 13.342
10.780, 4.351
10.790, 5.359
10.800, 7.367
10.810, 3.345
10.820, 5.353
10.830, 9.362
10.840, 1.371
10.850, 1.379
10.860, 12.388
10.870, 7.447
10.880, 5.456
10.890, 10.465
10.900, 2.474
10.910, 8.482
10.920, 5.539
10.930, 10.548
10.940, 10.557
10.950, 3.566
10.960, 9.575
10.970, 4.561
10.980, 3.570
10.990, 8.579
11.000, 6.588
11.010, 14.598
11.020, 1.607
11.030, 9.616
11.040, 5.626
11.050, 9.635
11.060, 13.645
11.070, 3.655
11.080, 3.665
11.090, 3.674
11.100, 7.684
11.110, 0.306
11.120, 9.704
11.130, 1.713
11.140, 8.723
11.150, 6.732
11.160, 4.742
11.170, 2.751
11.180, 3.761
11.190, 9.771
11.200, 9.781
11.210, 5.790
11.220, 1.800
11.230, 4.810
11.240, 2.819
11.250, 0.829
11.260, 2.838
11.270, 0.848
11.280, 0.141
11.290, 2.868
11.300, 3.878
11.310, 1.889
11.320, 4.900
11.330, 1.910
11.340, 5.921
11.350, 5.931
11.360, 3.941
11.370, 4.952
11.380, 7.975
11.390, 0.986
11.400, 3.996
11.410, 3.006
11.420, 9.017
11.430, 9.027
11.440, 0.037
11.450, 9.047
11.460, 3.058
11.470, 2.932
11.480, 2.076
11.490, 9.085
11.500, 7.093
11.510, 10.101
11.520, 1.110
11.530, 6.118
11.540, 1.874
11.550, 4.133
11.560, 7.141
11.570, 8.148
11.580, 1.200
11.590, 8.252
11.600, 7.259
11.610, 7.266
11.620, 0.727
11.630, 9.279
11.640, 5.286
11.650, 2.708
11.660, 9.297
11.670, 1.303
11.680, 7.308
11.690, 0.313
11.700, 3.199
11.710, 1.795
11.720, 6.209
11.730, 5.213
11.740, 3.218
11.750, 11.222
11.760, 5.226
11.770, 0.230
11.780, 4.234
11.790, 6.238
11.800, 6.242
11.810, 4.246
11.820, 1.250
11.830, 0.254
11.840, 7.258
11.850, 1.262
11.860, 6.266
11.870, 1.270
11.880, 7.273
11.890, 14.277
11.900, 6.281
11.910, 4.285
11.920, 10.288
11.930, 2.292
11.940, 4.295
11.950, 9.299
11.960, 6.302
11.970, 8.306
11.980, 3.310
11.990, 6.314
12.000, 4.318
12.010, 3.323
12.020, 9.327
12.030, 0.331
12.040, 7.335
12.050, 6.386
12.060, 0.610
12.070, 3.442
12.080, 11.445
12.090, 1.448
12.100, 7.452
12.110, 0.545
12.120, 12.458
12.130, 0.461
12.140, 4.575
12.150, 2.578
12.160, 1.581
12.170, 9.583
12.180, 3.586
12.190, 5.589
12.200, 1.592
12.210, 3.594
12.220, 1.597
12.230, 0.599
12.240, 2.602
12.250, 8.604
12.260, 6.607
12.270, 5.609
12.280, 1.612
12.290, 4.614
12.300, 5.616
12.310, 3.594
12.320, 7.596
12.330, 4.598
12.340, 0.600
12.350, 12.602
12.360, 5.604
12.370, 0.606
12.380, 4.608
12.390, 9.610
12.400, 6.612
12.410, 8.614
12.420, 1.616
12.430, 8.618
12.440, 6.620
12.450, 2.622
12.460, 4.624
12.470, 1.626
12.480, 8.612
12.490, 3.614
12.500, 4.616
12.510, 4.618
12.520, 5.620
12.530, 2.622
12.540, 11.624
12.550, 3.627
12.560, 1.629
12.570, 0.369
12.580, 3.633
12.590, 0.635
12.600, 6.638
12.610, 5.640
12.620, 3.642
12.630, 7.644
12.640, 6.638
12.650, 10.640
12.660, 2.642
12.670, 10.450
12.680, 3.452
12.690, 3.454
12.700, 4.456
12.710, 5.457
12.720, 3.459
12.730, 0.461
12.740, 8.334
12.750, 4.336
12.760, 6.338
12.770, 0.661
12.780, 0.659
12.790, 4.342
12.800, 6.343
12.810, 0.344
12.820, 5.285
12.830, 5.286
12.840, 3.287
12.850, 2.104
12.860, 4.105
12.870, 1.106
12.880, 8.107
12.890, 0.196
12.900, 5.198
12.910, 7.076
12.920, 3.077
12.930, 11.079
12.940, 6.081
12.950, 2.082
12.960, 5.084
12.970, 1.084
12.980, 7.086
12.990, 8.087
13.000, 6.089
13.010, 4.091
13.020, 3.092
13.030, 1.093
13.040, 11.095
13.050, 7.096
13.060, 2.098
13.070, 0.100
13.080, 1.101
13.090, 7.103
13.100, 6.105
13.110, 0.107
13.120, 5.109
13.130, 6.110
13.140, 2.112
13.150, 0.131
13.160, 2.133
13.170, 5.150
13.180, 0.152
13.190, 7.154
13.200, 10.156
13.210, 1.158
13.220, 8.160
13.230, 3.162
13.240, 0.836
13.250, 9.165
13.260, 0.883
13.270, 5.118
13.280, 1.119
13.290, 3.120
13.300, 5.122
13.310, 5.075
13.320, 8.077
13.330, 1.910
13.340, 2.090
13.350, 1.090
13.360, 7.091
13.370, 7.091
13.380, 4.092
13.390, 6.093
13.400, 11.093
13.410, 6.094
13.420, 4.094
13.430, 0.095
13.440, 6.096
13.450, 2.096
13.460, 5.097
13.470, 7.098
13.480, 0.099
13.490, 4.100
13.500, 0.101
13.510, 2.102
13.520, 3.103
13.530, 7.104
13.540, 5.105
13.550, 2.106
13.560, 6.107
13.570, 3.108
13.580, 5.110
13.590, 3.111
13.600, 7.112
13.610, 0.113
13.620, 8.176
13.630, 6.178
13.640, 3.180
13.650, 0.241
13.660, 4.243
13.670, 1.245
13.680, 4.248
13.690, 11.250
13.700, 9.308
13.710, 6.310
13.720, 4.313
13.730, 5.316
13.740, 6.319
13.750, 1.322
13.760, 3.436
13.770, 2.402
13.780, 8.405
13.790, 8.408
13.800, 1.411
13.810, 0.415
13.820, 4.418
13.830, 6.421
13.840, 2.425
13.850, 6.428
13.860, 5.432
13.870, 7.436
13.880, 2.440
13.890, 1.445
13.900, 4.450
13.910, 10.455
13.920, 7.460
13.930, 1.464
13.940, 5.470
13.950, 3.475
13.960, 2.481
13.970, 5.441
13.980, 3.437
13.990, 10.443
14.000, 7.449
14.010, 3.454
14.020, 0.460
14.030, 3.466
14.040, 9.472
14.050, 7.479
14.060, 3.486
14.070, 4.493
14.080, 1.501
14.090, 6.506
14.100, 3.512
14.110, 5.519
14.120, 0.525
14.130, 3.532
14.140, 6.539
14.150, 5.546
14.160, 5.552
14.170, 12.559
14.180, 0.566
14.190, 8.573
14.200, 4.581
14.210, 2.588
14.220, 2.595
14.230, 5.602
14.240, 3.610
14.250, 2.617
14.260, 5.624
14.270, 1.631
14.280, 7.639
14.290, 6.646
14.300, 4.654
14.310, 2.661
14.320, 6.669
14.330, 6.676
14.340, 0.316
14.350, 5.692
14.360, 0.280
14.370, 3.728
14.380, 2.735
14.390, 3.743
14.400, 6.750
14.410, 2.758
14.420, 3.765
14.430, 11.773
14.440, 0.733
14.450, 5.741
14.460, 12.700
14.470, 0.708
14.480, 0.716
14.490, 4.724
14.500, 3.731
14.510, 5.740
14.520, 0.252
14.530, 3.644
14.540, 3.652
14.550, 10.676
14.560, 5.684
14.570, 2.692
14.580, 0.701
14.590, 0.709
14.600, 4.717
14.610, 5.725
14.620, 5.733
14.630, 4.755
14.640, 2.764
14.650, 4.772
14.660, 0.780
14.670, 0.788
14.680, 5.797
14.690, 3.805
14.700, 5.813
14.710, 7.822
14.720, 7.830
14.730, 11.839
14.740, 2.847
14.750, 8.856
14.760, 2.864
14.770, 2.873
14.780, 3.881
14.790, 5.890
14.800, 4.898
14.810, 0.959
14.820, 4.049
14.830, 5.057
14.840, 0.935
14.850, 4.147
14.860, 9.155
14.870, 4.162
14.880, 7.170
14.890, 0.823
14.900, 3.185
14.910, 10.192
14.920, 3.336
14.930, 9.343
14.940, 4.350
14.950, 1.642
14.960, 5.364
14.970, 3.370
14.980, 9.377
14.990, 5.383
15.000, 5.403
15.010, 5.410
15.020, 4.416
15.030, 4.422
15.040, 5.429
15.050, 4.435
15.060, 5.441
15.070, 3.461
15.080, 5.542
15.090, 4.549
15.100, 2.555
15.110, 13.561
15.120, 4.580
15.130, 0.586
15.140, 3.604
15.150, 3.610
15.160, 5.617
15.170, 0.377
15.180, 7.629
15.190, 10.635
15.200, 2.642
15.210, 7.648
15.220, 1.654
15.230, 2.660
15.240, 7.666
15.250, 1.672
15.260, 2.690
15.270, 1.696
15.280, 7.613
15.290, 7.619
15.300, 4.625
15.310, 8.631
15.320, 5.637
15.330, 2.643
15.340, 1.649
15.350, 6.654
15.360, 0.660
15.370, 7.666
15.380, 7.745
15.390, 4.751
15.400, 10.757
15.410, 9.762
15.420, 1.768
15.430, 5.774
15.440, 4.779
15.450, 6.785
15.460, 6.790
15.470, 7.796
15.480, 1.801
15.490, 6.806
15.500, 1.812
15.510, 9.890
15.520, 3.895
15.530, 1.900
15.540, 1.889
15.550, 0.106
15.560, 4.883
15.570, 1.888
15.580, 3.893
15.590, 4.898
15.600, 6.903
15.610, 4.908
15.620, 7.913
15.630, 10.917
15.640, 3.922
15.650, 1.927
15.660, 1.932
15.670, 1.937
15.680, 11.942
15.690, 1.947
15.700, 1.952
15.710, 5.957
15.720, 4.950
15.730, 6.955
15.740, 0.039
15.750, 0.966
15.760, 4.972
15.770, 1.978
15.780, 3.985
15.790, 6.991
15.800, 1.997
15.810, 4.003
15.820, 0.009
15.830, 5.015
15.840, 3.020
15.850, 3.026
15.860, 6.032
15.870, 4.037
15.880, 3.043
15.890, 5.049
15.900, 4.054
15.910, 4.060
15.920, 6.065
15.930, 4.071
15.940, 4.076
15.950, 3.082
15.960, 4.087
15.970, 5.092
15.980, 2.098
15.990, 3.103
16.000, 1.892
16.010, 8.052
16.020, 7.056
16.030, 5.059
16.040, 0.996
16.050, 13.007
16.060, 5.019
16.070, 4.022
16.080, 4.033
16.090, 4.989
16.100, 5.992
16.110, 2.005
16.120, 2.997
16.130, 7.999
16.140, 6.000
16.150, 6.892
16.160, 6.893
16.170, 9.895
16.180, 0.897
16.190, 0.102
16.200, 4.900
16.210, 1.901
16.220, 1.903
16.230, 2.904
16.240, 1.906
16.250, 0.907
16.260, 0.092
16.270, 1.090
16.280, 9.910
16.290, 2.910
16.300, 7.911
16.310, 0.088
16.320, 9.912
16.330, 0.074
16.340, 5.927
16.350, 4.927
16.360, 3.927
16.370, 5.892
16.380, 3.893
16.390, 4.893
16.400, 8.894
16.410, 8.894
16.420, 13.895
16.430, 4.895
16.440, 4.896
16.450, 0.104
16.460, 1.896
16.470, 4.896
16.480, 9.897
16.490, 4.898
16.500, 0.898
16.510, 10.899
16.520, 7.900
16.530, 6.901
16.540, 0.901
16.550, 3.902
16.560, 5.903
16.570, 1.097
16.580, 11.903
16.590, 4.903
16.600, 1.903
16.610, 1.903
16.620, 3.903
16.630, 7.903
16.640, 5.903
16.650, 5.903
16.660, 3.903
16.670, 3.902
16.680, 2.903
16.690, 7.903
16.700, 1.097
16.710, 0.902
16.720, 8.901
16.730, 6.901
16.740, 12.900
16.750, 7.878
16.760, 4.888
16.770, 4.887
16.780, 3.887
16.790, 4.886
16.800, 8.885
16.810, 5.885
16.820, 8.884
16.830, 3.884
16.840, 0.883
16.850, 2.883
16.860, 5.882
16.870, 4.882
16.880, 0.881
16.890, 0.881
16.900, 3.880
16.910, 1.880
16.920, 0.879
16.930, 5.879
16.940, 3.931
16.950, 1.125
16.960, 4.130
16.970, 4.130
16.980, 6.129
16.990, 8.129
17.000, 6.128
17.010, 5.127
17.020, 8.113
17.030, 1.113
17.040, 6.113
17.050, 3.113
17.060, 3.112
17.070, 8.112
17.080, 5.112
17.090, 1.112
17.100, 2.113
17.110, 3.113
17.120, 8.112
17.130, 1.112
17.140, 11.111
17.150, 1.111
17.160, 5.110
17.170, 1.110
17.180, 3.109
17.190, 3.109
17.200, 2.974
17.210, 2.974
17.220, 0.974
17.230, 2.973
17.240, 2.899
17.250, 0.101
17.260, 2.898
17.270, 0.102
17.280, 0.102
17.290, 6.898
17.300, 1.898
17.310, 1.761
17.320, 2.761
17.330, 3.760
17.340, 4.762
17.350, 6.762
17.360, 2.762
17.370, 4.763
17.380, 4.763
17.390, 8.750
17.400, 0.750
17.410, 4.751
17.420, 0.752
17.430, 2.753
17.440, 4.753
17.450, 1.754
17.460, 7.742
17.470, 10.668
17.480, 1.670
17.490, 2.726
17.500, 5.727
17.510, 3.716
17.520, 0.283
17.530, 0.707
17.540, 1.708
17.550, 2.709
17.560, 4.765
17.570, 4.766
17.580, 10.767
17.590, 3.769
17.600, 7.770
17.610, 7.772
17.620, 2.773
17.630, 3.775
17.640, 4.776
17.650, 3.765
17.660, 0.767
17.670, 3.768
17.680, 4.823
17.690, 2.825
17.700, 0.826
17.710, 3.828
17.720, 0.829
17.730, 0.831
17.740, 1.832
17.750, 2.834
17.760, 6.835
17.770, 5.763
17.780, 3.765
17.790, 2.766
17.800, 3.768
17.810, 2.770
17.820, 1.772
17.830, 4.774
17.840, 6.776
17.850, 2.778
17.860, 4.780
17.870, 6.831
17.880, 0.833
17.890, 3.835
17.900, 3.764
17.910, 0.766
17.920, 2.768
17.930, 2.770
17.940, 3.773
17.950, 0.225
17.960, 10.777
17.970, 7.779
17.980, 2.781
17.990, 2.784
18.000, 4.786
18.010, 5.788
18.020, 4.790
18.030, 2.792
18.040, 4.842
18.050, 2.844
18.060, 2.846
18.070, 4.848
18.080, 3.851
18.090, 4.853
18.100, 2.855
18.110, 1.858
18.120, 4.860
18.130, 1.138
18.140, 3.136
18.150, 0.136
18.160, 5.864
18.170, 4.864
18.180, 8.864
18.190, 3.865
18.200, 4.865
18.210, 7.981
18.220, 2.981
18.230, 4.982
18.240, 3.982
18.250, 5.983
18.260, 3.983
18.270, 8.984
18.280, 0.984
18.290, 0.016
18.300, 1.985
18.310, 6.985
18.320, 7.986
18.330, 7.986
18.340, 0.987
18.350, 5.987
18.360, 2.988
18.370, 5.988
18.380, 3.989
18.390, 8.989
18.400, 4.990
18.410, 3.991
18.420, 0.992
18.430, 5.993
18.440, 4.995
18.450, 2.988
18.460, 1.990
18.470, 4.983
18.480, 5.977
18.490, 3.979
18.500, 2.980
18.510, 3.982
18.520, 7.984
18.530, 0.014
18.540, 6.988
18.550, 3.990
18.560, 1.992
18.570, 1.046
18.580, 4.048
18.590, 5.050
18.600, 2.052
18.610, 10.106
18.620, 3.108
18.630, 2.110
18.640, 9.112
18.650, 6.228
18.660, 8.230
18.670, 3.233
18.680, 0.765
18.690, 3.237
18.700, 2.239
18.710, 5.241
18.720, 6.230
18.730, 1.232
18.740, 3.234
18.750, 0.763
18.760, 1.238
18.770, 9.240
18.780, 3.242
18.790, 2.244
18.800, 7.246
18.810, 1.248
18.820, 7.249
18.830, 5.251
18.840, 4.253
18.850, 5.255
18.860, 3.257
18.870, 0.742
18.880, 3.260
18.890, 4.261
18.900, 2.262
18.910, 6.264
18.920, 5.265
18.930, 8.266
18.940, 2.267
18.950, 2.269
18.960, 4.270
18.970, 4.272
18.980, 4.274
18.990, 2.392
19.000, 6.394
19.010, 4.396
19.020, 3.397
19.030, 2.399
19.040, 2.401
19.050, 2.402
19.060, 0.596
19.070, 1.405
19.080, 5.407
19.090, 2.408
19.100, 2.410
19.110, 4.412
19.120, 4.414
19.130, 2.416
19.140, 0.418
19.150, 2.410
19.160, 4.412
19.170, 4.414
19.180, 3.416
19.190, 4.418
19.200, 2.420
19.210, 3.422
19.220, 4.424
19.230, 0.575
19.240, 4.427
19.250, 4.428
19.260, 1.430
19.270, 1.431
19.280, 6.432
19.290, 1.434
19.300, 4.435
19.310, 6.437
19.320, 3.439
19.330, 6.371
19.340, 3.179
19.350, 6.174
19.360, 3.176
19.370, 0.178
19.380, 0.180
19.390, 2.181
19.400, 1.766
19.410, 4.235
19.420, 6.236
19.430, 2.237
19.440, 6.238
19.450, 2.239
19.460, 3.240
19.470, 3.241
19.480, 4.242
19.490, 8.241
19.500, 0.242
19.510, 3.243
19.520, 1.244
19.530, 3.246
19.540, 4.247
19.550, 3.248
19.560, 2.249
19.570, 4.250
19.580, 4.251
19.590, 1.252
19.600, 0.253
19.610, 5.254
19.620, 4.255
19.630, 0.256
19.640, 5.258
19.650, 5.259
19.660, 1.260
19.670, 2.262
19.680, 5.263
19.690, 9.264
19.700, 3.266
19.710, 3.267
19.720, 1.269
19.730, 11.268
19.740, 1.270
19.750, 4.271
19.760, 0.727
19.770, 2.274
19.780, 1.275
19.790, 4.276
19.800, 0.723
19.810, 8.277
19.820, 5.278
19.830, 5.278
19.840, 1.721
19.850, 9.278
19.860, 0.278
19.870, 4.277
19.880, 5.222
19.890, 4.221
19.900, 4.221
19.910, 1.220
19.920, 0.220
19.930, 2.219
19.940, 7.276
19.950, 7.221
19.960, 2.220
19.970, 2.219
19.980, 6.219
19.990, 1.218
20.000, 1.218
20.010, 6.217
20.020, 4.216
20.030, 3.215
20.040, 6.215
20.050, 5.214
20.060, 4.213
20.070, 4.159
20.080, 7.158
20.090, 3.158
20.100, 3.157
20.110, 2.156
20.120, 10.155
20.130, 1.154
20.140, 2.153
20.150, 8.211
20.160, 4.210
20.170, 3.209
20.180, 1.792
20.190, 4.208
20.200, 3.206
20.210, 1.204
20.220, 10.202
20.230, 2.200
20.240, 0.199
20.250, 6.198
20.260, 3.149
20.270, 3.147
20.280, 2.265
20.290, 2.264
20.300, 6.263
20.310, 3.262
20.320, 2.260
20.330, 1.259
20.340, 0.258
20.350, 5.256
20.360, 4.255
20.370, 3.254
20.380, 3.252
20.390, 4.251
20.400, 2.250
20.410, 1.248
20.420, 4.247
20.430, 3.198
20.440, 4.197
20.450, 2.196
20.460, 3.194
20.470, 1.193
20.480, 9.191
20.490, 2.247
20.500, 2.302
20.510, 3.300
20.520, 4.299
20.530, 3.298
20.540, 8.297
20.550, 2.297
20.560, 2.297
20.570, 5.296
20.580, 4.296
20.590, 0.705
20.600, 5.237
20.610, 1.236
20.620, 1.235
20.630, 3.235
20.640, 4.234
20.650, 7.233
20.660, 5.232
20.670, 1.231
20.680, 3.230
20.690, 0.288
20.700, 9.287
20.710, 2.286
20.720, 3.285
20.730, 3.284
20.740, 5.283
20.750, 0.282
20.760, 5.281
20.770, 7.280
20.780, 3.279
20.790, 8.277
20.800, 3.276
20.810, 7.275
20.820, 7.274
20.830, 6.332
20.840, 5.331
20.850, 6.330
20.860, 8.329
20.870, 3.328
20.880, 2.326
20.890, 3.325
20.900, 8.324
20.910, 4.323
20.920, 1.321
20.930, 6.320
20.940, 4.319
20.950, 10.377
20.960, 5.324
20.970, 4.323
20.980, 13.322
20.990, 4.320
21.000, 6.268
21.010, 4.266
21.020, 9.265
21.030, 7.264
21.040, 12.148
21.050, 3.147
21.060, 7.145
21.070, 2.144
21.080, 7.143
21.090, 9.142
21.100, 6.141
21.110, 2.140
21.120, 5.139
21.130, 0.862
21.140, 5.136
21.150, 2.135
21.160, 5.133
21.170, 2.132
21.180, 2.132
21.190, 5.131
21.200, 2.129
21.210, 4.128
21.220, 2.126
21.230, 2.125
21.240, 9.124
21.250, 9.122
21.260, 5.121
21.270, 5.120
21.280, 4.118
21.290, 0.117
21.300, 7.116
21.310, 1.115
21.320, 4.114
21.330, 4.113
21.340, 0.888
21.350, 1.110
21.360, 4.108
21.370, 3.107
21.380, 0.011
21.390, 3.988
21.400, 5.987
21.410, 2.986
21.420, 2.168
21.430, 1.167
21.440, 3.166
21.450, 6.166
21.460, 8.165
21.470, 1.836
21.480, 5.163
21.490, 5.163
21.500, 7.162
21.510, 1.161
21.520, 8.160
21.530, 6.159
21.540, 5.158
21.550, 7.158
21.560, 3.157
21.570, 3.156
21.580, 3.155
21.590, 0.155
21.600, 0.154
21.610, 0.153
21.620, 0.153
21.630, 3.153
21.640, 4.153
21.650, 4.153
21.660, 5.153
21.670, 2.153
21.680, 0.847
21.690, 0.847
21.700, 1.152
21.710, 2.151
21.720, 4.150
21.730, 2.149
21.740, 9.148
21.750, 3.147
21.760, 3.146
21.770, 4.145
21.780, 1.145
21.790, 0.908
21.800, 7.091
21.810, 8.091
21.820, 3.090
21.830, 2.089
21.840, 3.088
21.850, 2.087
21.860, 7.086
21.870, 4.085
21.880, 0.915
21.890, 6.083
21.900, 2.082
21.910, 7.081
21.920, 2.079
21.930, 2.078
21.940, 5.077
21.950, 4.075
21.960, 7.074
21.970, 7.073
21.980, 4.072
21.990, 3.071
22.000, 2.070
22.010, 5.069
22.020, 0.932
22.030, 2.066
22.040, 1.064
22.050, 4.063
22.060, 4.061
22.070, 4.060
22.080, 4.058
22.090, 6.057
22.100, 8.055
22.110, 7.054
22.120, 4.053
22.130, 3.051
22.140, 0.950
22.150, 5.049
22.160, 1.048
22.170, 6.047
22.180, 3.045
22.190, 1.044
22.200, 5.043
22.210, 6.042
22.220, 2.042
22.230, 3.041
22.240, 2.040
22.250, 2.040
22.260, 3.040
22.270, 1.039
22.280, 5.039
22.290, 5.039
22.300, 7.039
22.310, 0.039
22.320, 5.038
22.330, 4.981
22.340, 2.981
22.350, 4.981
22.360, 13.980
22.370, 0.020
22.380, 1.980
22.390, 1.980
22.400, 3.980
22.410, 5.980
22.420, 0.980
22.430, 2.980
22.440, 0.980
22.450, 2.980
22.460, 3.980
22.470, 0.981
22.480, 2.981
22.490, 2.981
22.500, 4.981
22.510, 2.982
22.520, 4.982
22.530, 5.982
22.540, 8.925
22.550, 6.925
22.560, 6.029
22.570, 3.029
22.580, 1.029
22.590, 1.030
22.600, 2.031
22.610, 2.968
22.620, 0.077
22.630, 10.076
22.640, 8.076
22.650, 4.076
22.660, 5.119
22.670, 5.168
22.680, 2.168
22.690, 6.168
22.700, 4.168
22.710, 1.167
22.720, 3.167
22.730, 2.167
22.740, 3.167
22.750, 7.167
22.760, 9.167
22.770, 3.208
22.780, 2.208
22.790, 4.208
22.800, 13.208
22.810, 1.208
22.820, 6.311
22.830, 10.311
22.840, 5.311
22.850, 8.311
22.860, 5.312
22.870, 5.312
22.880, 8.255
22.890, 9.199
22.900, 9.199
22.910, 18.199
22.920, 15.199
22.930, 16.200
22.940, 13.200
22.950, 17.200
22.960, 13.201
22.970, 15.201
22.980, 20.202
22.990, 23.144
23.000, 27.146
23.010, 28.147
23.020, 39.148
23.030, 39.150
23.040, 70.151
23.050, 83.152
23.060, 91.154
23.070, 89.155
23.080, 100.098
23.090, 115.099
23.100, 97.101
23.110, 79.102
23.120, 92.104
23.130, 77.105
23.140, 77.107
23.150, 62.137
23.160, 61.139
23.170, 39.140
23.180, 26.142
23.190, 21.144
23.200, 25.145
23.210, 25.147
23.220, 8.090
23.230, 14.091
23.240, 11.093
23.250, 15.095
23.260, 13.097
23.270, 13.099
23.280, 4.127
23.290, 8.129
23.300, 5.131
23.310, 10.134
23.320, 10.136
23.330, 13.222
23.340, 6.166
23.350, 6.168
23.360, 7.171
23.370, 5.174
23.380, 5.177
23.390, 7.180
23.400, 8.183
23.410, 7.186
23.420, 5.189
23.430, 2.192
23.440, 8.195
23.450, 7.199
23.460, 9.203
23.470, 1.206
23.480, 1.210
23.490, 5.214
23.500, 2.218
23.510, 5.221
23.520, 4.225
23.530, 6.229
23.540, 3.233
23.550, 1.237
23.560, 6.241
23.570, 0.244
23.580, 6.248
23.590, 2.252
23.600, 6.256
23.610, 7.262
23.620, 6.267
23.630, 4.272
23.640, 4.277
23.650, 3.282
23.660, 1.288
23.670, 1.293
23.680, 8.304
23.690, 12.314
23.700, 9.319
23.710, 1.325
23.720, 3.331
23.730, 3.337
23.740, 1.343
23.750, 1.651
23.760, 1.359
23.770, 8.364
23.780, 5.369
23.790, 1.375
23.800, 4.380
23.810, 0.799
23.820, 1.206
23.830, 2.216
23.840, 1.221
23.850, 0.774
23.860, 2.770
23.870, 2.234
23.880, 1.238
23.890, 0.241
23.900, 0.245
23.910, 8.249
23.920, 5.253
23.930, 8.256
23.940, 3.260
23.950, 0.264
23.960, 0.733
23.970, 1.271
23.980, 2.274
23.990, 4.278
24.000, 1.281
24.010, 1.715
24.020, 2.287
24.030, 11.290
24.040, 2.292
24.050, 1.303
24.060, 6.306
24.070, 5.309
24.080, 3.311
24.090, 2.314
24.100, 1.326
24.110, 3.329
24.120, 3.332
24.130, 1.335
24.140, 4.338
24.150, 0.342
24.160, 14.345
24.170, 4.481
24.180, 1.484
24.190, 7.488
24.200, 3.499
24.210, 6.503
24.220, 1.506
24.230, 7.510
24.240, 1.513
24.250, 3.516
24.260, 4.520
24.270, 1.523
24.280, 1.527
24.290, 3.530
24.300, 5.534
24.310, 3.538
24.320, 6.541
24.330, 5.545
24.340, 0.451
24.350, 7.552
24.360, 1.555
24.370, 3.559
24.380, 3.562
24.390, 3.565
24.400, 3.569
24.410, 11.572
24.420, 1.575
24.430, 7.579
24.440, 3.583
24.450, 8.586
24.460, 1.590
24.470, 0.407
24.480, 5.597
24.490, 4.736
24.500, 1.739
24.510, 5.742
24.520, 1.254
24.530, 7.748
24.540, 6.751
24.550, 1.830
24.560, 5.833
24.570, 5.835
24.580, 4.838
24.590, 7.841
24.600, 8.844
24.610, 4.846
24.620, 2.849
24.630, 6.852
24.640, 1.994
24.650, 3.997
24.660, 5.999
24.670, 1.002
24.680, 3.004
24.690, 4.007
24.700, 6.010
24.710, 1.013
24.720, 2.015
24.730, 2.018
24.740, 10.021
24.750, 4.025
24.760, 4.028
24.770, 2.031
24.780, 3.035
24.790, 5.108
24.800, 3.244
24.810, 11.248
24.820, 6.251
24.830, 2.254
24.840, 1.257
24.850, 2.395
24.860, 6.398
24.870, 0.401
24.880, 0.404
24.890, 6.407
24.900, 5.409
24.910, 2.412
24.920, 2.415
24.930, 3.417
24.940, 2.420
24.950, 0.332
24.960, 3.334
24.970, 4.337
24.980, 4.339
24.990, 7.341
25.000, 2.343
25.010, 1.302
25.020, 0.305
25.030, 5.307
25.040, 3.310
25.050, 7.269
25.060, 1.103
25.070, 1.106
25.080, 2.109
25.090, 5.111
25.100, 1.114
25.110, 3.117
25.120, 6.119
25.130, 2.122
25.140, 5.124
25.150, 3.127
25.160, 1.088
25.170, 7.090
25.180, 5.092
25.190, 1.095
25.200, 6.097
25.210, 0.996
25.220, 1.998
25.230, 3.000
25.240, 0.002
25.250, 3.004
25.260, 10.006
25.270, 3.008
25.280, 4.010
25.290, 0.012
25.300, 5.014
25.310, 5.015
25.320, 3.017
25.330, 2.019
25.340, 9.020
25.350, 3.022
25.360, 1.977
25.370, 5.024
25.380, 2.024
25.390, 0.025
25.400, 5.025
25.410, 3.026
25.420, 6.026
25.430, 4.027
25.440, 3.027
25.450, 8.028
25.460, 1.029
25.470, 1.030
25.480, 3.031
25.490, 4.031
25.500, 4.032
25.510, 3.033
25.520, 3.033
25.530, 5.034
25.540, 3.006
25.550, 4.006
25.560, 3.006
25.570, 1.007
25.580, 2.007
25.590, 5.008
25.600, 2.009
25.610, 3.010
25.620, 4.010
25.630, 9.011
25.640, 7.013
25.650, 4.014
25.660, 6.015
25.670, 1.990
25.680, 2.009
25.690, 2.991
25.700, 3.992
25.710, 4.992
25.720, 0.909
25.730, 12.909
25.740, 1.090
25.750, 7.909
25.760, 1.909
25.770, 4.909
25.780, 2.909
25.790, 1.910
25.800, 6.910
25.810, 0.910
25.820, 3.910
25.830, 2.091
25.840, 4.908
25.850, 4.906
25.860, 3.904
25.870, 2.903
25.880, 8.941
25.890, 3.940
25.900, 5.938
25.910, 4.937
25.920, 3.976
25.930, 4.077
25.940, 6.076
25.950, 4.075
25.960, 7.115
25.970, 7.114
25.980, 0.888
25.990, 1.890
26.000, 8.106
26.010, 4.103
26.020, 2.099
26.030, 3.095
26.040, 1.909
26.050, 8.086
26.060, 8.081
26.070, 7.072
26.080, 6.062
26.090, 3.056
26.100, 4.051
26.110, 2.045
26.120, 5.040
26.130, 3.034
26.140, 0.028
26.150, 3.018
26.160, 3.013
26.170, 6.007
26.180, 6.002
26.190, 4.996
26.200, 10.991
26.210, 9.985
26.220, 18.975
26.230, 19.969
26.240, 15.963
26.250, 25.957
26.260, 13.952
26.270, 12.962
26.280, 19.957
26.290, 17.951
26.300, 17.946
26.310, 17.941
26.320, 24.935
26.330, 6.930
26.340, 8.924
26.350, 3.918
26.360, 11.913
26.370, 6.907
26.380, 5.901
26.390, 8.895
26.400, 2.889
26.410, 2.884
26.420, 15.878
26.430, 7.873
26.440, 5.859
26.450, 10.854
26.460, 11.848
26.470, 7.871
26.480, 12.865
26.490, 11.851
26.500, 27.845
26.510, 36.839
26.520, 29.833
26.530, 22.826
26.540, 30.820
26.550, 34.814
26.560, 20.674
26.570, 30.705
26.580, 15.698
26.590, 17.683
26.600, 12.779
26.610, 5.772
26.620, 9.765
26.630, 8.758
26.640, 4.795
26.650, 9.832
26.660, 5.825
26.670, 2.817
26.680, 7.810
26.690, 6.802
26.700, 5.795
26.710, 3.787
26.720, 2.779
26.730, 6.771
26.740, 3.763
26.750, 3.755
26.760, 7.802
26.770, 8.794
26.780, 7.785
26.790, 4.835
26.800, 4.886
26.810, 1.877
26.820, 1.869
26.830, 0.985
26.840, 4.976
26.850, 4.967
26.860, 4.958
26.870, 1.953
26.880, 1.875
26.890, 3.866
26.900, 6.857
26.910, 5.981
26.920, 3.971
26.930, 8.962
26.940, 5.876
26.950, 3.942
26.960, 4.932
26.970, 6.922
26.980, 0.912
26.990, 2.902
27.000, 2.892
27.010, 1.882
27.020, 6.872
27.030, 6.721
27.040, 3.711
27.050, 8.723
27.060, 11.800
27.070, 0.211
27.080, 3.806
27.090, 5.794
27.100, 1.813
27.110, 0.199
27.120, 1.176
27.130, 1.810
27.140, 7.797
27.150, 0.216
27.160, 7.770
27.170, 9.756
27.180, 7.672
27.190, 6.525
27.200, 5.511
27.210, 13.496
27.220, 13.482
27.230, 21.468
27.240, 27.319
27.250, 24.304
27.260, 24.289
27.270, 15.275
27.280, 11.260
27.290, 19.245
27.300, 9.230
27.310, 17.215
27.320, 21.200
27.330, 14.185
27.340, 8.157
27.350, 11.205
27.360, 4.190
27.370, 7.174
27.380, 4.159
27.390, 4.143
27.400, 4.128
27.410, 5.112
27.420, 2.097
27.430, 4.081
27.440, 1.065
27.450, 6.049
27.460, 0.033
27.470, 6.034
27.480, 3.018
27.490, 1.002
27.500, 5.986
27.510, 1.969
27.520, 1.953
27.530, 3.937
27.540, 3.920
27.550, 2.904
27.560, 2.887
27.570, 3.870
27.580, 2.854
27.590, 4.837
27.600, 2.820
27.610, 0.889
27.620, 1.872
27.630, 4.855
27.640, 0.838
27.650, 1.821
27.660, 0.196
27.670, 4.787
27.680, 2.770
27.690, 3.752
27.700, 2.735
27.710, 3.717
27.720, 1.700
27.730, 3.682
27.740, 1.664
27.750, 4.647
27.760, 0.370
27.770, 8.612
27.780, 3.594
27.790, 1.423
27.800, 3.558
27.810, 0.540
27.820, 2.521
27.830, 0.497
27.840, 0.516
27.850, 2.464
27.860, 2.445
27.870, 0.425
27.880, 6.406
27.890, 1.386
27.900, 0.366
27.910, 1.347
27.920, 4.327
27.930, 2.308
27.940, 1.288
27.950, 0.732
27.960, 0.248
27.970, 6.228
27.980, 0.792
27.990, 0.813
28.000, 9.165
28.010, 2.144
28.020, 1.877
28.030, 3.101
28.040, 4.079
28.050, 4.057
28.060, 0.035
28.070, 0.987
28.080, 1.991
28.090, 5.969
28.100, 2.052
28.110, 8.924
28.120, 0.901
28.130, 2.878
28.140, 1.145
28.150, 6.832
28.160, 5.808
28.170, 0.785
28.180, 3.760
28.190, 1.737
28.200, 2.714
28.210, 5.690
28.220, 3.667
28.230, 3.644
28.240, 0.379
28.250, 1.402
28.260, 3.575
28.270, 0.488
28.280, 6.488
28.290, 0.536
28.300, 2.439
28.310, 0.625
28.320, 3.248
28.330, 3.223
28.340, 1.199
28.350, 2.133
28.360, 4.108
28.370, 2.084
28.380, 0.060
28.390, 4.037
28.400, 6.014
28.410, 1.990
28.420, 8.967
28.430, 3.944
28.440, 6.922
28.450, 2.899
28.460, 4.877
28.470, 5.855
28.480, 5.834
28.490, 9.814
28.500, 3.794
28.510, 5.776
28.520, 0.757
28.530, 14.739
28.540, 1.279
28.550, 7.702
28.560, 7.684
28.570, 10.666
28.580, 6.648
28.590, 5.629
28.600, 4.611
28.610, 5.593
28.620, 6.575
28.630, 9.558
28.640, 13.540
28.650, 11.522
28.660, 0.510
28.670, 3.473
28.680, 7.455
28.690, 9.437
28.700, 5.420
28.710, 2.403
28.720, 4.386
28.730, 7.369
28.740, 5.353
28.750, 13.336
28.760, 3.320
28.770, 9.304
28.780, 10.288
28.790, 4.272
28.800, 1.744
28.810, 10.239
28.820, 3.223
28.830, 5.207
28.840, 16.190
28.850, 4.174
28.860, 11.130
28.870, 3.114
28.880, 8.098
28.890, 16.082
28.900, 8.067
28.910, 14.051
28.920, 13.036
28.930, 9.021
28.940, 6.006
28.950, 7.991
28.960, 9.938
28.970, 6.924
28.980, 15.909
28.990, 16.792
29.000, 14.777
29.010, 18.763
29.020, 12.749
29.030, 16.691
29.040, 10.632
29.050, 9.618
29.060, 16.619
29.070, 18.605
29.080, 18.592
29.090, 10.579
29.100, 17.566
29.110, 24.553
29.120, 23.540
29.130, 22.527
29.140, 34.515
29.150, 32.447
29.160, 39.435
29.170, 30.422
29.180, 35.352
29.190, 52.281
29.200, 43.279
29.210, 52.389
29.220, 53.253
29.230, 61.241
29.240, 85.238
29.250, 79.228
29.260, 81.220
29.270, 98.142
29.280, 114.131
29.290, 124.121
29.300, 145.978
29.310, 139.968
29.320, 195.958
29.330, 214.949
29.340, 258.864
29.350, 320.855
29.360, 410.846
29.370, 590.837
29.380, 744.831
29.390, 983.823
29.400, 1205.815
29.410, 1546.807
29.420, 1630.799
29.430, 1677.792
29.440, 1467.761
29.450, 1212.667
29.460, 1092.660
29.470, 1094.625
29.480, 1084.618
29.490, 1029.582
29.500, 997.576
29.510, 947.537
29.520, 692.532
29.530, 577.527
29.540, 454.523
29.550, 354.519
29.560, 279.516
29.570, 237.512
29.580, 193.509
29.590, 138.507
29.600, 141.504
29.610, 119.502
29.620, 101.500
29.630, 90.498
29.640, 81.497
29.650, 86.580
29.660, 82.579
29.670, 73.661
29.680, 35.994
29.690, 36.994
29.700, 50.326
29.710, 53.325
29.720, 31.325
29.730, 46.344
29.740, 26.281
29.750, 30.300
29.760, 29.300
29.770, 31.301
29.780, 24.301
29.790, 34.302
29.800, 24.303
29.810, 22.304
29.820, 25.305
29.830, 13.307
29.840, 24.308
29.850, 18.310
29.860, 16.295
29.870, 21.297
29.880, 25.300
29.890, 19.302
29.900, 11.374
29.910, 15.385
29.920, 10.388
29.930, 17.391
29.940, 13.394
29.950, 13.463
29.960, 10.466
29.970, 15.470
29.980, 3.474
29.990, 10.478
30.000, 12.396
30.010, 21.400
30.020, 13.405
30.030, 11.409
30.040, 0.414
30.050, 13.419
30.060, 12.424
30.070, 8.429
30.080, 8.435
30.090, 7.440
30.100, 10.446
30.110, 5.452
30.120, 13.458
30.130, 11.465
30.140, 8.471
30.150, 5.478
30.160, 3.485
30.170, 10.492
30.180, 2.499
30.190, 4.507
30.200, 3.515
30.210, 5.523
30.220, 13.531
30.230, 1.540
30.240, 6.549
30.250, 0.442
30.260, 8.567
30.270, 4.577
30.280, 2.586
30.290, 2.596
30.300, 12.606
30.310, 2.616
30.320, 3.626
30.330, 3.636
30.340, 6.646
30.350, 3.657
30.360, 7.668
30.370, 3.679
30.380, 5.691
30.390, 0.297
30.400, 2.286
30.410, 6.725
30.420, 0.737
30.430, 0.251
30.440, 2.761
30.450, 0.227
30.460, 8.785
30.470, 0.797
30.480, 8.810
30.490, 0.823
30.500, 1.836
30.510, 10.850
30.520, 1.863
30.530, 2.877
30.540, 13.913
30.550, 3.927
30.560, 2.942
30.570, 0.043
30.580, 6.972
30.590, 3.987
30.600, 5.003
30.610, 0.018
30.620, 7.033
30.630, 5.049
30.640, 6.065
30.650, 5.081
30.660, 1.098
30.670, 2.123
30.680, 5.140
30.690, 1.226
30.700, 4.243
30.710, 4.261
30.720, 6.278
30.730, 7.296
30.740, 7.319
30.750, 0.401
30.760, 3.419
30.770, 8.437
30.780, 1.455
30.790, 4.535
30.800, 13.553
30.810, 3.572
30.820, 3.590
30.830, 3.608
30.840, 1.373
30.850, 7.645
30.860, 1.337
30.870, 5.320
30.880, 12.694
30.890, 5.291
30.900, 2.720
30.910, 8.732
30.920, 0.256
30.930, 0.756
30.940, 0.232
30.950, 3.780
30.960, 8.792
30.970, 4.804
30.980, 2.816
30.990, 2.828
31.000, 3.841
31.010, 8.853
31.020, 6.875
31.030, 2.896
31.040, 5.909
31.050, 3.922
31.060, 2.935
31.070, 5.948
31.080, 9.961
31.090, 1.025
31.100, 0.011
31.110, 5.003
31.120, 8.017
31.130, 7.031
31.140, 0.955
31.150, 2.058
31.160, 10.072
31.170, 10.085
31.180, 4.099
31.190, 5.112
31.200, 8.126
31.210, 8.140
31.220, 9.155
31.230, 6.169
31.240, 1.184
31.250, 2.199
31.260, 7.213
31.270, 5.228
31.280, 2.243
31.290, 10.258
31.300, 11.313
31.310, 10.328
31.320, 8.344
31.330, 13.359
31.340, 9.375
31.350, 15.390
31.360, 15.406
31.370, 17.421
31.380, 9.437
31.390, 8.453
31.400, 21.468
31.410, 16.484
31.420, 30.500
31.430, 29.516
31.440, 36.532
31.450, 35.534
31.460, 37.572
31.470, 37.589
31.480, 23.605
31.490, 29.621
31.500, 33.637
31.510, 21.653
31.520, 19.670
31.530, 23.686
31.540, 25.702
31.550, 13.718
31.560, 20.734
31.570, 13.751
31.580, 5.767
31.590, 10.787
31.600, 10.682
31.610, 12.698
31.620, 0.714
31.630, 3.723
31.640, 9.739
31.650, 3.748
31.660, 10.764
31.670, 2.780
31.680, 5.796
31.690, 4.812
31.700, 0.829
31.710, 4.845
31.720, 6.861
31.730, 0.123
31.740, 6.893
31.750, 6.977
31.760, 2.992
31.770, 4.006
31.780, 3.022
31.790, 8.037
31.800, 3.053
31.810, 8.068
31.820, 2.084
31.830, 4.100
31.840, 5.115
31.850, 8.131
31.860, 0.147
31.870, 4.162
31.880, 0.818
31.890, 3.197
31.900, 7.211
31.910, 5.226
31.920, 4.241
31.930, 0.255
31.940, 0.730
31.950, 1.283
31.960, 6.297
31.970, 5.311
31.980, 0.675
31.990, 4.338
32.000, 2.351
32.010, 3.364
32.020, 5.377
32.030, 2.390
32.040, 5.317
32.050, 4.330
32.060, 5.259
32.070, 1.938
32.080, 3.951
32.090, 3.631
32.100, 4.644
32.110, 7.656
32.120, 5.650
32.130, 2.662
32.140, 8.657
32.150, 0.672
32.160, 5.685
32.170, 9.698
32.180, 4.761
32.190, 1.774
32.200, 7.787
32.210, 0.200
32.220, 0.188
32.230, 2.827
32.240, 0.839
32.250, 3.852
32.260, 1.973
32.270, 2.986
32.280, 1.106
32.290, 0.156
32.300, 2.161
32.310, 4.174
32.320, 4.187
32.330, 8.199
32.340, 3.146
32.350, 2.159
32.360, 6.171
32.370, 9.184
32.380, 9.196
32.390, 2.208
32.400, 1.260
32.410, 5.272
32.420, 3.323
32.430, 1.374
32.440, 2.386
32.450, 0.398
32.460, 11.410
32.470, 7.422
32.480, 6.434
32.490, 0.554
32.500, 3.558
32.510, 4.570
32.520, 2.581
32.530, 8.592
32.540, 5.603
32.550, 0.652
32.560, 1.663
32.570, 2.674
32.580, 4.684
32.590, 7.695
32.600, 2.706
32.610, 6.717
32.620, 0.826
32.630, 1.836
32.640, 4.847
32.650, 0.142
32.660, 3.868
32.670, 0.879
32.680, 2.889
32.690, 1.899
32.700, 3.910
32.710, 6.920
32.720, 5.931
32.730, 3.941
32.740, 3.952
32.750, 7.962
32.760, 7.973
32.770, 9.984
32.780, 0.006
32.790, 9.005
32.800, 10.016
32.810, 8.026
32.820, 8.037
32.830, 8.048
32.840, 5.058
32.850, 4.069
32.860, 2.080
32.870, 8.090
32.880, 6.100
32.890, 9.111
32.900, 1.121
32.910, 9.131
32.920, 6.141
32.930, 8.130
32.940, 0.860
32.950, 2.149
32.960, 9.158
32.970, 3.167
32.980, 4.176
32.990, 1.212
33.000, 7.221
33.010, 6.229
33.020, 4.238
33.030, 4.247
33.040, 2.255
33.050, 6.263
33.060, 4.263
33.070, 0.271
33.080, 4.210
33.090, 7.218
33.100, 2.226
33.110, 5.234
33.120, 6.241
33.130, 10.244
33.140, 11.187
33.150, 11.194
33.160, 12.202
33.170, 14.209
33.180, 22.155
33.190, 12.162
33.200, 20.169
33.210, 19.176
33.220, 13.183
33.230, 9.190
33.240, 7.198
33.250, 12.205
33.260, 2.213
33.270, 12.222
33.280, 4.231
33.290, 4.241
33.300, 2.252
33.310, 5.262
33.320, 8.361
33.330, 3.371
33.340, 0.381
33.350, 3.392
33.360, 3.402
33.370, 0.588
33.380, 4.421
33.390, 4.431
33.400, 1.440
33.410, 5.468
33.420, 0.469
33.430, 9.478
33.440, 4.487
33.450, 1.504
33.460, 5.504
33.470, 1.488
33.480, 1.444
33.490, 0.562
33.500, 1.568
33.510, 6.574
33.520, 1.580
33.530, 5.586
33.540, 1.592
33.550, 3.599
33.560, 5.605
33.570, 4.611
33.580, 3.617
33.590, 0.378
33.600, 1.628
33.610, 0.367
33.620, 0.362
33.630, 2.643
33.640, 3.647
33.650, 3.651
33.660, 5.656
33.670, 3.660
33.680, 0.664
33.690, 1.372
33.700, 6.631
33.710, 1.634
33.720, 4.637
33.730, 2.640
33.740, 0.358
33.750, 5.645
33.760, 3.647
33.770, 1.650
33.780, 3.652
33.790, 6.654
33.800, 4.656
33.810, 1.342
33.820, 3.659
33.830, 6.717
33.840, 5.718
33.850, 6.697
33.860, 7.698
33.870, 6.699
33.880, 6.700
33.890, 5.758
33.900, 3.816
33.910, 7.816
33.920, 7.817
33.930, 4.817
33.940, 0.818
33.950, 4.939
33.960, 7.939
33.970, 2.939
33.980, 4.925
33.990, 5.925
34.000, 3.925
34.010, 3.926
34.020, 4.926
34.030, 6.925
34.040, 2.925
34.050, 1.924
34.060, 4.924
34.070, 2.923
34.080, 1.923
34.090, 0.922
34.100, 5.921
34.110, 0.920
34.120, 0.919
34.130, 3.918
34.140, 8.849
34.150, 7.848
34.160, 3.847
34.170, 3.846
34.180, 0.154
34.190, 0.845
34.200, 0.844
34.210, 4.842
34.220, 6.841
34.230, 2.840
34.240, 3.838
34.250, 1.837
34.260, 1.836
34.270, 2.830
34.280, 6.829
34.290, 5.828
34.300, 1.826
34.310, 1.825
34.320, 2.823
34.330, 3.822
34.340, 5.821
34.350, 1.820
34.360, 3.818
34.370, 4.817
34.380, 5.816
34.390, 4.815
34.400, 7.813
34.410, 5.812
34.420, 3.813
34.430, 1.812
34.440, 2.811
34.450, 4.872
34.460, 2.870
34.470, 4.869
34.480, 5.867
34.490, 2.866
34.500, 7.864
34.510, 1.137
34.520, 1.860
34.530, 1.858
34.540, 1.853
34.550, 2.851
34.560, 2.852
34.570, 2.799
34.580, 0.797
34.590, 0.795
34.600, 0.207
34.610, 5.791
34.620, 4.787
34.630, 2.785
34.640, 5.782
34.650, 3.672
34.660, 2.670
34.670, 0.440
34.680, 2.452
34.690, 4.449
34.700, 6.447
34.710, 4.444
34.720, 3.442
34.730, 3.440
34.740, 1.437
34.750, 4.435
34.760, 3.433
34.770, 3.430
34.780, 3.428
34.790, 5.386
34.800, 2.383
34.810, 2.342
34.820, 2.301
34.830, 4.298
34.840, 2.296
34.850, 0.293
34.860, 4.290
34.870, 3.288
34.880, 0.285
34.890, 1.181
34.900, 2.179
34.910, 6.177
34.920, 9.174
34.930, 0.172
34.940, 8.133
34.950, 1.130
34.960, 0.128
34.970, 1.126
34.980, 2.124
34.990, 0.121
35.000, 1.119
35.010, 3.018
35.020, 0.984
35.030, 2.013
35.040, 0.011
35.050, 1.008
35.060, 3.005
35.070, 0.002
35.080, 1.000
35.090, 1.004
35.100, 4.993
35.110, 5.989
35.120, 3.985
35.130, 0.981
35.140, 2.023
35.150, 1.973
35.160, 4.968
35.170, 5.963
35.180, 6.958
35.190, 1.954
35.200, 0.051
35.210, 0.945
35.220, 2.940
35.230, 4.936
35.240, 5.931
35.250, 3.927
35.260, 1.923
35.270, 1.919
35.280, 1.915
35.290, 5.912
35.300, 3.908
35.310, 5.905
35.320, 5.901
35.330, 0.898
35.340, 2.895
35.350, 0.892
35.360, 8.004
35.370, 4.001
35.380, 1.971
35.390, 13.968
35.400, 0.965
35.410, 1.961
35.420, 4.958
35.430, 8.955
35.440, 2.952
35.450, 7.949
35.460, 6.946
35.470, 6.943
35.480, 6.940
35.490, 9.937
35.500, 6.934
35.510, 6.931
35.520, 4.928
35.530, 9.925
35.540, 10.922
35.550, 11.919
35.560, 7.916
35.570, 0.913
35.580, 3.910
35.590, 5.907
35.600, 5.904
35.610, 0.099
35.620, 6.898
35.630, 10.895
35.640, 1.108
35.650, 8.888
35.660, 0.941
35.670, 11.937
35.680, 6.933
35.690, 8.930
35.700, 3.926
35.710, 3.834
35.720, 7.831
35.730, 5.884
35.740, 8.880
35.750, 0.123
35.760, 7.874
35.770, 1.871
35.780, 16.048
35.790, 4.045
35.800, 8.014
35.810, 12.011
35.820, 16.008
35.830, 11.005
35.840, 21.055
35.850, 4.053
35.860, 24.166
35.870, 16.128
35.880, 20.127
35.890, 18.125
35.900, 31.124
35.910, 32.123
35.920, 34.122
35.930, 38.121
35.940, 49.119
35.950, 61.118
35.960, 66.118
35.970, 95.118
35.980, 119.117
35.990, 121.117
36.000, 120.117
36.010, 109.117
36.020, 97.117
36.030, 91.117
36.040, 88.117
36.050, 79.117
36.060, 80.167
36.070, 85.167
36.080, 89.167
36.090, 85.168
36.100, 88.168
36.110, 67.169
36.120, 64.169
36.130, 44.170
36.140, 43.221
36.150, 37.222
36.160, 31.222
36.170, 25.223
36.180, 18.224
36.190, 19.224
36.200, 33.225
36.210, 25.226
36.220, 18.170
36.230, 15.171
36.240, 19.172
36.250, 17.173
36.260, 21.174
36.270, 12.175
36.280, 6.118
36.290, 14.062
36.300, 10.063
36.310, 10.064
36.320, 10.065
36.330, 5.066
36.340, 6.946
36.350, 10.947
36.360, 13.948
36.370, 6.949
36.380, 2.005
36.390, 9.006
36.400, 5.006
36.410, 5.006
36.420, 4.007
36.430, 2.008
36.440, 3.009
36.450, 2.066
36.460, 2.186
36.470, 4.187
36.480, 3.245
36.490, 7.246
36.500, 8.247
36.510, 3.248
36.520, 6.249
36.530, 2.250
36.540, 2.252
36.550, 1.747
36.560, 4.253
36.570, 4.253
36.580, 5.253
36.590, 6.253
36.600, 5.253
36.610, 3.253
36.620, 7.254
36.630, 4.254
36.640, 5.254
36.650, 5.254
36.660, 2.254
36.670, 2.254
36.680, 4.255
36.690, 6.255
36.700, 7.255
36.710, 3.255
36.720, 10.255
36.730, 1.255
36.740, 4.255
36.750, 4.255
36.760, 2.255
36.770, 3.256
36.780, 6.256
36.790, 3.256
36.800, 3.256
36.810, 9.253
36.820, 3.253
36.830, 2.253
36.840, 5.191
36.850, 0.809
36.860, 1.191
36.870, 6.190
36.880, 1.190
36.890, 1.190
36.900, 3.189
36.910, 2.189
36.920, 0.811
36.930, 3.259
36.940, 0.259
36.950, 2.255
36.960, 2.254
36.970, 2.746
36.980, 3.252
36.990, 1.250
37.000, 7.248
37.010, 3.246
37.020, 4.322
37.030, 0.680
37.040, 4.335
37.050, 1.668
37.060, 2.329
37.070, 3.326
37.080, 5.323
37.090, 2.319
37.100, 3.316
37.110, 1.313
37.120, 1.309
37.130, 1.306
37.140, 6.388
37.150, 8.470
37.160, 3.467
37.170, 2.487
37.180, 6.483
37.190, 3.480
37.200, 5.476
37.210, 8.473
37.220, 4.470
37.230, 9.466
37.240, 0.463
37.250, 0.541
37.260, 4.455
37.270, 3.451
37.280, 5.447
37.290, 2.443
37.300, 2.439
37.310, 6.435
37.320, 0.431
37.330, 0.573
37.340, 4.422
37.350, 2.418
37.360, 4.413
37.370, 5.409
37.380, 5.404
37.390, 15.399
37.400, 2.395
37.410, 0.390
37.420, 6.386
37.430, 4.381
37.440, 4.377
37.450, 4.372
37.460, 4.368
37.470, 1.363
37.480, 6.359
37.490, 3.355
37.500, 3.351
37.510, 4.347
37.520, 4.343
37.530, 1.339
37.540, 4.335
37.550, 10.332
37.560, 4.328
37.570, 0.675
37.580, 1.321
37.590, 0.317
37.600, 8.313
37.610, 2.308
37.620, 2.304
37.630, 2.300
37.640, 0.704
37.650, 1.708
37.660, 3.286
37.670, 0.719
37.680, 11.311
37.690, 7.306
37.700, 4.300
37.710, 2.295
37.720, 0.290
37.730, 3.285
37.740, 3.280
37.750, 3.159
37.760, 5.154
37.770, 3.149
37.780, 8.143
37.790, 2.139
37.800, 4.134
37.810, 3.129
37.820, 9.125
37.830, 4.120
37.840, 3.116
37.850, 3.111
37.860, 3.106
37.870, 7.102
37.880, 7.098
37.890, 8.094
37.900, 1.090
37.910, 9.086
37.920, 5.083
37.930, 10.079
37.940, 7.075
37.950, 4.071
37.960, 16.068
37.970, 5.064
37.980, 9.060
37.990, 5.057
38.000, 1.054
38.010, 11.050
38.020, 9.047
38.030, 6.044
38.040, 7.041
38.050, 10.982
38.060, 2.979
38.070, 2.976
38.080, 1.973
38.090, 8.970
38.100, 4.967
38.110, 3.964
38.120, 1.095
38.130, 4.902
38.140, 1.898
38.150, 5.895
38.160, 2.891
38.170, 0.708
38.180, 5.705
38.190, 4.701
38.200, 3.698
38.210, 1.305
38.220, 0.691
38.230, 0.366
38.240, 7.630
38.250, 4.511
38.260, 1.507
38.270, 7.503
38.280, 3.499
38.290, 5.495
38.300, 0.492
38.310, 5.488
38.320, 7.484
38.330, 1.520
38.340, 1.524
38.350, 2.471
38.360, 0.534
38.370, 5.461
38.380, 6.456
38.390, 1.451
38.400, 3.447
38.410, 4.442
38.420, 10.438
38.430, 9.434
38.440, 5.430
38.450, 13.377
38.460, 8.373
38.470, 9.370
38.480, 4.366
38.490, 8.362
38.500, 0.359
38.510, 1.355
38.520, 4.352
38.530, 2.298
38.540, 7.294
38.550, 5.291
38.560, 7.288
38.570, 1.285
38.580, 3.282
38.590, 7.279
38.600, 10.276
38.610, 9.273
38.620, 11.270
38.630, 5.267
38.640, 5.264
38.650, 10.262
38.660, 11.259
38.670, 4.257
38.680, 6.254
38.690, 7.252
38.700, 7.250
38.710, 7.247
38.720, 2.245
38.730, 2.243
38.740, 7.241
38.750, 5.239
38.760, 4.237
38.770, 9.180
38.780, 8.179
38.790, 5.177
38.800, 4.176
38.810, 8.175
38.820, 8.174
38.830, 6.173
38.840, 6.176
38.850, 13.056
38.860, 14.055
38.870, 0.882
38.880, 4.176
38.890, 1.175
38.900, 7.174
38.910, 6.173
38.920, 2.172
38.930, 4.171
38.940, 3.171
38.950, 5.171
38.960, 5.171
38.970, 6.171
38.980, 5.288
38.990, 9.289
39.000, 1.289
39.010, 11.289
39.020, 6.290
39.030, 8.290
39.040, 1.291
39.050, 0.291
39.060, 10.292
39.070, 6.470
39.080, 6.471
39.090, 8.471
39.100, 8.472
39.110, 9.473
39.120, 10.474
39.130, 2.475
39.140, 7.477
39.150, 10.478
39.160, 6.525
39.170, 5.527
39.180, 9.573
39.190, 6.575
39.200, 16.577
39.210, 14.579
39.220, 7.581
39.230, 16.583
39.240, 16.585
39.250, 19.587
39.260, 16.589
39.270, 21.592
39.280, 28.594
39.290, 32.596
39.300, 25.599
39.310, 21.601
39.320, 36.533
39.330, 29.536
39.340, 45.539
39.350, 45.542
39.360, 79.544
39.370, 64.548
39.380, 68.552
39.390, 113.555
39.400, 131.559
39.410, 176.485
39.420, 183.489
39.430, 186.476
39.440, 160.480
39.450, 182.484
39.460, 153.489
39.470, 129.494
39.480, 127.498
39.490, 107.503
39.500, 118.509
39.510, 116.514
39.520, 115.519
39.530, 130.439
39.540, 102.397
39.550, 100.402
39.560, 98.384
39.570, 56.390
39.580, 68.433
39.590, 46.539
39.600, 49.546
39.610, 33.583
39.620, 43.621
39.630, 28.627
39.640, 25.634
39.650, 26.640
39.660, 27.647
39.670, 23.655
39.680, 17.662
39.690, 17.669
39.700, 13.677
39.710, 21.684
39.720, 14.691
39.730, 14.699
39.740, 13.707
39.750, 13.715
39.760, 11.723
39.770, 10.731
39.780, 12.739
39.790, 10.747
39.800, 6.755
39.810, 12.763
39.820, 5.771
39.830, 4.779
39.840, 7.812
39.850, 5.820
39.860, 3.828
39.870, 9.836
39.880, 4.844
39.890, 10.852
39.900, 6.861
39.910, 6.869
39.920, 1.877
39.930, 2.885
39.940, 2.893
39.950, 4.901
39.960, 2.909
39.970, 10.006
39.980, 4.014
39.990, 3.023
40.000, 0.031
40.010, 7.039
40.020, 10.048
40.030, 0.944
40.040, 3.093
40.050, 12.101
40.060, 1.890
40.070, 0.918
40.080, 4.089
40.090, 9.097
40.100, 3.104
40.110, 1.111
40.120, 3.154
40.130, 2.161
40.140, 3.168
40.150, 5.175
40.160, 2.182
40.170, 1.811
40.180, 4.196
40.190, 7.202
40.200, 5.208
40.210, 7.215
40.220, 3.221
40.230, 6.227
40.240, 3.234
40.250, 0.240
40.260, 2.754
40.270, 0.251
40.280, 3.255
40.290, 1.260
40.300, 4.264
40.310, 2.269
40.320, 3.321
40.330, 6.435
40.340, 0.439
40.350, 0.556
40.360, 1.448
40.370, 0.548
40.380, 4.455
40.390, 3.459
40.400, 13.462
40.410, 3.465
40.420, 4.469
40.430, 1.472
40.440, 8.475
40.450, 2.478
40.460, 5.481
40.470, 2.484
40.480, 6.487
40.490, 1.490
40.500, 1.493
40.510, 0.496
40.520, 4.499
40.530, 2.503
40.540, 0.506
40.550, 1.509
40.560, 5.512
40.570, 2.515
40.580, 4.518
40.590, 9.521
40.600, 5.523
40.610, 4.526
40.620, 4.529
40.630, 6.533
40.640, 1.536
40.650, 3.539
40.660, 1.542
40.670, 0.544
40.680, 2.608
40.690, 4.611
40.700, 2.613
40.710, 4.617
40.720, 2.619
40.730, 0.378
40.740, 2.625
40.750, 7.628
40.760, 5.631
40.770, 0.366
40.780, 1.364
40.790, 3.834
40.800, 0.165
40.810, 0.164
40.820, 1.837
40.830, 3.837
40.840, 4.838
40.850, 0.976
40.860, 4.977
40.870, 2.977
40.880, 3.977
40.890, 7.977
40.900, 3.977
40.910, 3.977
40.920, 5.055
40.930, 6.055
40.940, 5.055
40.950, 6.055
40.960, 6.054
40.970, 7.054
40.980, 10.053
40.990, 3.052
41.000, 9.051
41.010, 8.051
41.020, 6.050
41.030, 0.049
41.040, 3.047
41.050, 5.046
41.060, 1.044
41.070, 4.043
41.080, 3.041
41.090, 2.039
41.100, 6.037
41.110, 4.035
41.120, 5.033
41.130, 4.031
41.140, 4.029
41.150, 4.027
41.160, 0.976
41.170, 7.021
41.180, 6.018
41.190, 4.015
41.200, 6.011
41.210, 2.007
41.220, 4.004
41.230, 0.060
41.240, 7.936
41.250, 8.932
41.260, 1.807
41.270, 3.744
41.280, 1.740
41.290, 3.736
41.300, 9.732
41.310, 0.273
41.320, 2.722
41.330, 2.718
41.340, 3.713
41.350, 3.708
41.360, 4.804
41.370, 4.682
41.380, 0.678
41.390, 5.672
41.400, 2.667
41.410, 2.662
41.420, 5.656
41.430, 2.651
41.440, 3.645
41.450, 3.640
41.460, 6.456
41.470, 5.451
41.480, 5.445
41.490, 0.439
41.500, 0.433
41.510, 0.573
41.520, 1.579
41.530, 2.414
41.540, 1.407
41.550, 3.354
41.560, 2.347
41.570, 8.295
41.580, 3.288
41.590, 3.280
41.600, 10.273
41.610, 5.265
41.620, 1.258
41.630, 2.250
41.640, 2.243
41.650, 3.235
41.660, 3.228
41.670, 5.221
41.680, 4.213
41.690, 7.206
41.700, 1.198
41.710, 3.191
41.720, 0.183
41.730, 6.176
41.740, 4.168
41.750, 8.161
41.760, 8.153
41.770, 4.146
41.780, 4.138
41.790, 9.131
41.800, 3.123
41.810, 1.116
41.820, 8.108
41.830, 2.101
41.840, 8.093
41.850, 1.086
41.860, 10.078
41.870, 0.929
41.880, 1.062
41.890, 9.054
41.900, 0.046
41.910, 7.038
41.920, 2.030
41.930, 5.984
41.940, 1.976
41.950, 0.968
41.960, 0.959
41.970, 4.913
41.980, 3.196
41.990, 0.795
42.000, 2.753
42.010, 0.712
42.020, 3.702
42.030, 0.693
42.040, 2.317
42.050, 1.672
42.060, 5.661
42.070, 3.650
42.080, 2.639
42.090, 2.628
42.100, 3.617
42.110, 1.393
42.120, 5.595
42.130, 2.584
42.140, 3.572
42.150, 2.561
42.160, 2.550
42.170, 0.539
42.180, 1.528
42.190, 3.517
42.200, 2.506
42.210, 0.495
42.220, 1.484
42.230, 0.449
42.240, 5.438
42.250, 3.427
42.260, 1.417
42.270, 0.406
42.280, 2.396
42.290, 7.385
42.300, 5.375
42.310, 8.364
42.320, 3.354
42.330, 3.343
42.340, 9.333
42.350, 2.323
42.360, 2.224
42.370, 2.214
42.380, 6.203
42.390, 2.193
42.400, 4.183
42.410, 3.173
42.420, 3.163
42.430, 2.124
42.440, 10.115
42.450, 3.105
42.460, 8.096
42.470, 8.087
42.480, 6.079
42.490, 3.070
42.500, 2.062
42.510, 2.018
42.520, 1.009
42.530, 7.001
42.540, 1.993
42.550, 2.015
42.560, 2.976
42.570, 0.032
42.580, 0.959
42.590, 0.951
42.600, 2.946
42.610, 3.938
42.620, 4.931
42.630, 3.923
42.640, 7.918
42.650, 10.911
42.660, 8.904
42.670, 7.898
42.680, 5.891
42.690, 1.886
42.700, 8.881
42.710, 12.860
42.720, 5.745
42.730, 4.741
42.740, 2.737
42.750, 4.733
42.760, 4.729
42.770, 4.726
42.780, 5.723
42.790, 6.720
42.800, 2.718
42.810, 3.715
42.820, 7.713
42.830, 3.729
42.840, 7.727
42.850, 7.725
42.860, 6.735
42.870, 8.733
42.880, 12.743
42.890, 6.742
42.900, 7.741
42.910, 4.740
42.920, 12.738
42.930, 3.737
42.940, 7.736
42.950, 6.735
42.960, 1.735
42.970, 11.734
42.980, 15.743
42.990, 17.742
43.000, 11.742
43.010, 8.750
43.020, 16.749
43.030, 20.749
43.040, 22.749
43.050, 16.757
43.060, 16.756
43.070, 20.703
43.080, 18.703
43.090, 31.704
43.100, 34.711
43.110, 41.711
43.120, 55.711
43.130, 65.712
43.140, 93.712
43.150, 110.713
43.160, 136.714
43.170, 147.715
43.180, 156.520
43.190, 169.521
43.200, 129.523
43.210, 136.526
43.220, 90.528
43.230, 81.530
43.240, 60.395
43.250, 71.397
43.260, 81.400
43.270, 89.403
43.280, 95.413
43.290, 103.416
43.300, 94.419
43.310, 90.344
43.320, 63.348
43.330, 55.414
43.340, 60.417
43.350, 32.421
43.360, 42.425
43.370, 35.429
43.380, 25.433
43.390, 41.437
43.400, 16.503
43.410, 18.507
43.420, 26.511
43.430, 26.523
43.440, 22.528
43.450, 22.532
43.460, 9.537
43.470, 4.542
43.480, 15.546
43.490, 16.551
43.500, 15.556
43.510, 11.561
43.520, 10.566
43.530, 5.571
43.540, 7.576
43.550, 5.581
43.560, 8.587
43.570, 10.593
43.580, 8.598
43.590, 3.604
43.600, 9.610
43.610, 4.616
43.620, 6.621
43.630, 8.627
43.640, 8.633
43.650, 6.640
43.660, 2.656
43.670, 5.673
43.680, 4.691
43.690, 4.708
43.700, 5.714
43.710, 9.721
43.720, 7.739
43.730, 5.746
43.740, 7.752
43.750, 3.657
43.760, 1.664
43.770, 5.670
43.780, 3.676
43.790, 0.247
43.800, 0.760
43.810, 4.837
43.820, 7.844
43.830, 0.149
43.840, 2.858
43.850, 3.865
43.860, 5.872
43.870, 0.879
43.880, 0.114
43.890, 4.090
43.900, 0.768
43.910, 3.239
43.920, 5.383
43.930, 4.391
43.940, 4.398
43.950, 5.406
43.960, 3.413
43.970, 2.561
43.980, 2.568
43.990, 5.576
44.000, 1.583
44.010, 3.590
44.020, 0.403
44.030, 1.688
44.040, 6.695
44.050, 0.214
44.060, 1.792
44.070, 0.201
44.080, 6.806
44.090, 2.814
44.100, 4.820
44.110, 1.827
44.120, 0.834
44.130, 6.840
44.140, 7.846
44.150, 5.853
44.160, 1.859
44.170, 0.135
44.180, 5.871
44.190, 3.877
44.200, 0.083
44.210, 7.924
44.220, 2.930
44.230, 3.937
44.240, 0.056
44.250, 2.950
44.260, 0.043
44.270, 5.964
44.280, 1.971
44.290, 0.022
44.300, 6.984
44.310, 1.991
44.320, 3.998
44.330, 4.004
44.340, 7.010
44.350, 10.016
44.360, 8.022
44.370, 8.028
44.380, 3.035
44.390, 5.088
44.400, 1.094
44.410, 6.101
44.420, 8.107
44.430, 4.164
44.440, 11.171
44.450, 2.177
44.460, 1.184
44.470, 0.190
44.480, 2.254
44.490, 5.260
44.500, 5.276
44.510, 4.282
44.520, 0.712
44.530, 3.293
44.540, 6.312
44.550, 5.332
44.560, 8.336
44.570, 1.341
44.580, 2.346
44.590, 0.650
44.600, 5.353
44.610, 2.357
44.620, 0.360
44.630, 4.363
44.640, 5.366
44.650, 2.369
44.660, 3.371
44.670, 2.374
44.680, 1.376
44.690, 1.378
44.700, 4.380
44.710, 4.382
44.720, 2.383
44.730, 6.385
44.740, 7.386
44.750, 4.387
44.760, 7.388
44.770, 10.389
44.780, 5.389
44.790, 4.390
44.800, 5.390
44.810, 2.390
44.820, 3.390
44.830, 1.389
44.840, 6.389
44.850, 0.388
44.860, 0.387
44.870, 0.386
44.880, 0.384
44.890, 3.383
44.900, 4.388
44.910, 0.386
44.920, 3.383
44.930, 6.381
44.940, 3.378
44.950, 2.388
44.960, 11.385
44.970, 1.382
44.980, 0.621
44.990, 4.393
45.000, 0.611
45.010, 3.384
45.020, 5.379
45.030, 4.402
45.040, 2.396
45.050, 2.390
45.060, 2.420
45.070, 5.451
45.080, 2.557
45.090, 1.565
45.100, 9.395
45.110, 1.615
45.120, 2.374
45.130, 8.362
45.140, 13.351
45.150, 9.349
45.160, 1.663
45.170, 3.323
45.180, 2.310
45.190, 2.296
45.200, 3.282
45.210, 3.268
45.220, 0.765
45.230, 1.250
45.240, 0.733
45.250, 3.239
45.260, 2.222
45.270, 3.234
45.280, 1.217
45.290, 7.200
45.300, 5.182
45.310, 6.165
45.320, 5.147
45.330, 5.129
45.340, 5.110
45.350, 6.096
45.360, 2.078
45.370, 3.105
45.380, 7.094
45.390, 0.075
45.400, 6.170
45.410, 3.163
45.420, 4.269
45.430, 8.248
45.440, 4.220
45.450, 3.199
45.460, 2.303
45.470, 7.282
45.480, 6.261
45.490, 2.231
45.500, 3.210
45.510, 11.187
45.520, 6.165
45.530, 7.143
45.540, 4.120
45.550, 5.097
45.560, 2.074
45.570, 4.051
45.580, 0.027
45.590, 3.006
45.600, 9.981
45.610, 6.957
45.620, 0.068
45.630, 1.907
45.640, 4.882
45.650, 2.856
45.660, 2.830
45.670, 0.202
45.680, 7.771
45.690, 0.744
45.700, 1.717
45.710, 3.689
45.720, 10.618
45.730, 0.609
45.740, 0.581
45.750, 8.553
45.760, 3.524
45.770, 3.495
45.780, 7.466
45.790, 8.376
45.800, 7.347
45.810, 7.317
45.820, 7.280
45.830, 4.251
45.840, 13.221
45.850, 9.191
45.860, 16.161
45.870, 16.130
45.880, 25.100
45.890, 15.069
45.900, 19.038
45.910, 19.007
45.920, 14.976
45.930, 9.945
45.940, 15.914
45.950, 8.882
45.960, 15.850
45.970, 7.819
45.980, 6.787
45.990, 15.755
46.000, 13.723
46.010, 13.690
46.020, 12.658
46.030, 8.626
46.040, 5.593
46.050, 12.550
46.060, 5.506
46.070, 2.462
46.080, 3.418
46.090, 0.384
46.100, 2.351
46.110, 4.306
46.120, 2.272
46.130, 7.239
46.140, 0.205
46.150, 1.171
46.160, 1.137
46.170, 5.103
46.180, 0.002
46.190, 5.964
46.200, 1.859
46.210, 4.824
46.220, 0.210
46.230, 2.755
46.240, 0.719
46.250, 0.316
46.260, 0.351
46.270, 1.613
46.280, 7.380
46.290, 3.209
46.300, 6.173
46.310, 1.001
46.320, 1.965
46.330, 7.929
46.340, 0.107
46.350, 1.857
46.360, 0.680
46.370, 1.644
46.380, 2.608
46.390, 0.572
46.400, 5.536
46.410, 5.500
46.420, 0.619
46.430, 0.656
46.440, 7.224
46.450, 5.188
46.460, 0.849
46.470, 0.115
46.480, 5.077
46.490, 4.040
46.500, 5.004
46.510, 2.967
46.520, 8.931
46.530, 2.895
46.540, 0.142
46.550, 0.822
46.560, 1.214
46.570, 0.251
46.580, 2.713
46.590, 2.358
46.600, 0.395
46.610, 2.432
46.620, 0.529
46.630, 10.491
46.640, 3.453
46.650, 2.585
46.660, 2.377
46.670, 4.338
46.680, 3.299
46.690, 4.260
46.700, 1.222
46.710, 5.184
46.720, 1.145
46.730, 8.107
46.740, 5.069
46.750, 11.032
46.760, 1.995
46.770, 2.958
46.780, 0.125
46.790, 1.839
46.800, 3.818
46.810, 2.782
46.820, 4.694
46.830, 2.658
46.840, 6.622
46.850, 1.586
46.860, 2.551
46.870, 9.457
46.880, 8.422
46.890, 9.376
46.900, 4.341
46.910, 0.694
46.920, 0.728
46.930, 6.224
46.940, 8.175
46.950, 3.141
46.960, 1.108
46.970, 8.075
46.980, 10.043
46.990, 17.011
47.000, 20.979
47.010, 16.947
47.020, 13.916
47.030, 25.885
47.040, 14.854
47.050, 11.823
47.060, 22.793
47.070, 23.763
47.080, 26.732
47.090, 40.703
47.100, 34.673
47.110, 37.644
47.120, 40.616
47.130, 56.587
47.140, 46.560
47.150, 42.532
47.160, 33.505
47.170, 38.478
47.180, 42.451
47.190, 42.424
47.200, 34.398
47.210, 34.371
47.220, 33.345
47.230, 45.320
47.240, 35.294
47.250, 48.269
47.260, 38.245
47.270, 35.220
47.280, 54.196
47.290, 35.165
47.300, 31.141
47.310, 29.118
47.320, 33.095
47.330, 21.072
47.340, 41.036
47.350, 30.014
47.360, 31.992
47.370, 34.970
47.380, 55.928
47.390, 51.907
47.400, 35.887
47.410, 55.867
47.420, 42.817
47.430, 71.797
47.440, 71.778
47.450, 92.724
47.460, 93.669
47.470, 114.651
47.480, 148.634
47.490, 185.618
47.500, 163.603
47.510, 180.588
47.520, 161.574
47.530, 177.560
47.540, 168.537
47.550, 143.524
47.560, 134.512
47.570, 85.501
47.580, 100.490
47.590, 113.480
47.600, 111.470
47.610, 123.460
47.620, 121.420
47.630, 112.379
47.640, 104.371
47.650, 115.363
47.660, 102.316
47.670, 89.309
47.680, 61.303
47.690, 53.297
47.700, 41.291
47.710, 49.286
47.720, 44.281
47.730, 25.276
47.740, 37.267
47.750, 38.263
47.760, 15.203
47.770, 14.192
47.780, 18.189
47.790, 20.148
47.800, 12.133
47.810, 27.005
47.820, 23.003
47.830, 17.002
47.840, 13.001
47.850, 6.867
47.860, 10.867
47.870, 9.867
47.880, 15.868
47.890, 7.869
47.900, 13.870
47.910, 3.872
47.920, 6.874
47.930, 17.938
47.940, 7.001
47.950, 8.063
47.960, 0.067
47.970, 3.070
47.980, 11.072
47.990, 0.924
48.000, 8.081
48.010, 12.086
48.020, 7.092
48.030, 2.098
48.040, 11.104
48.050, 0.111
48.060, 11.118
48.070, 5.125
48.080, 0.133
48.090, 7.178
48.100, 8.221
48.110, 6.212
48.120, 11.202
48.130, 1.211
48.140, 5.249
48.150, 15.260
48.160, 7.417
48.170, 1.451
48.180, 3.462
48.190, 6.493
48.200, 10.505
48.210, 6.518
48.220, 11.530
48.230, 12.543
48.240, 4.557
48.250, 13.571
48.260, 9.585
48.270, 20.600
48.280, 25.615
48.290, 9.686
48.300, 15.756
48.310, 18.772
48.320, 20.902
48.330, 30.918
48.340, 22.935
48.350, 26.953
48.360, 24.970
48.370, 25.988
48.380, 32.006
48.390, 31.024
48.400, 42.044
48.410, 55.064
48.420, 54.109
48.430, 57.130
48.440, 64.151
48.450, 91.173
48.460, 104.195
48.470, 117.217
48.480, 171.239
48.490, 147.262
48.500, 165.285
48.510, 193.308
48.520, 219.332
48.530, 206.355
48.540, 166.380
48.550, 168.404
48.560, 137.429
48.570, 126.453
48.580, 114.479
48.590, 119.504
48.600, 109.530
48.610, 127.557
48.620, 121.584
48.630, 124.611
48.640, 112.638
48.650, 121.768
48.660, 101.796
48.670, 99.825
48.680, 84.854
48.690, 72.883
48.700, 62.912
48.710, 58.941
48.720, 46.062
48.730, 48.092
48.740, 28.148
48.750, 23.178
48.760, 17.354
48.770, 33.385
48.780, 21.416
48.790, 27.448
48.800, 24.479
48.810, 18.511
48.820, 5.543
48.830, 11.575
48.840, 5.608
48.850, 8.640
48.860, 10.804
48.870, 17.837
48.880, 8.871
48.890, 9.904
48.900, 11.938
48.910, 8.972
48.920, 1.006
48.930, 13.040
48.940, 9.075
48.950, 13.109
48.960, 11.144
48.970, 15.180
48.980, 1.785
48.990, 5.250
49.000, 8.285
49.010, 3.322
49.020, 1.358
49.030, 5.394
49.040, 6.431
49.050, 3.468
49.060, 5.505
49.070, 4.543
49.080, 4.580
49.090, 6.618
49.100, 10.656
49.110, 8.694
49.120, 1.267
49.130, 1.230
49.140, 1.192
49.150, 0.845
49.160, 5.882
49.170, 1.919
49.180, 9.956
49.190, 2.977
49.200, 6.015
49.210, 5.052
49.220, 0.090
49.230, 4.128
49.240, 2.166
49.250, 2.203
49.260, 0.241
49.270, 3.280
49.280, 0.682
49.290, 0.644
49.300, 0.393
49.310, 4.431
49.320, 3.469
49.330, 0.493
49.340, 1.544
49.350, 2.418
49.360, 0.381
49.370, 0.655
49.380, 0.292
49.390, 0.744
49.400, 3.780
49.410, 0.816
49.420, 3.853
49.430, 2.889
49.440, 1.055
49.450, 1.091
49.460, 5.128
49.470, 3.164
49.480, 0.800
49.490, 0.764
49.500, 10.272
49.510, 1.693
49.520, 4.342
49.530, 8.376
49.540, 5.411
49.550, 3.446
49.560, 3.490
49.570, 6.524
49.580, 5.559
49.590, 1.839
49.600, 6.874
49.610, 0.092
49.620, 1.999
49.630, 3.033
49.640, 9.122
49.650, 4.156
49.660, 1.190
49.670, 7.224
49.680, 8.258
49.690, 4.292
49.700, 9.326
49.710, 3.360
49.720, 4.394
49.730, 3.428
49.740, 3.462
49.750, 8.495
49.760, 5.529
49.770, 9.563
49.780, 2.597
49.790, 7.733
49.800, 10.767
49.810, 4.800
49.820, 4.834
49.830, 5.867
49.840, 1.063
49.850, 1.969
49.860, 2.001
49.870, 5.034
49.880, 2.066
49.890, 3.101
49.900, 9.133
49.910, 0.835
49.920, 3.196
49.930, 0.227
49.940, 6.295
49.950, 1.675
49.960, 8.354
49.970, 6.383
49.980, 5.412
49.990, 5.441
50.000, 3.470
50.010, 5.500
50.020, 8.529
50.030, 3.557
50.040, 6.585
50.050, 1.387
50.060, 8.640
50.070, 8.707
50.080, 3.734
50.090, 2.760
50.100, 3.786
50.110, 3.813
50.120, 7.840
50.130, 8.866
50.140, 7.893
50.150, 4.919
50.160, 1.944
50.170, 6.970
50.180, 12.910
50.190, 6.935
50.200, 5.960
50.210, 9.985
50.220, 6.010
50.230, 6.035
50.240, 5.059
50.250, 4.083
50.260, 7.138
50.270, 10.193
50.280, 9.217
50.290, 12.240
50.300, 9.264
50.310, 19.287
50.320, 7.248
50.330, 8.211
50.340, 10.202
50.350, 4.225
50.360, 2.247
50.370, 6.270
50.380, 14.292
50.390, 8.314
50.400, 4.337
50.410, 6.358
50.420, 7.380
50.430, 4.402
50.440, 5.447
50.450, 4.468
50.460, 2.489
50.470, 2.510
50.480, 2.495
50.490, 1.481
50.500, 9.502
50.510, 4.522
50.520, 8.542
50.530, 4.534
50.540, 3.554
50.550, 4.428
50.560, 4.424
50.570, 0.444
50.580, 5.444
50.590, 2.463
50.600, 4.482
50.610, 3.500
50.620, 1.519
50.630, 1.463
50.640, 4.554
50.650, 11.571
50.660, 3.588
50.670, 3.605
50.680, 8.565
50.690, 3.528
50.700, 8.564
50.710, 6.467
50.720, 6.483
50.730, 6.499
50.740, 5.515
50.750, 0.531
50.760, 5.546
50.770, 8.562
50.780, 3.423
50.790, 3.591
50.800, 1.604
50.810, 0.408
50.820, 5.604
50.830, 0.384
50.840, 5.653
50.850, 1.665
50.860, 3.676
50.870, 5.687
50.880, 2.698
50.890, 7.709
50.900, 2.720
50.910, 6.730
50.920, 6.741
50.930, 2.751
50.940, 6.761
50.950, 4.771
50.960, 3.866
50.970, 8.875
50.980, 1.115
50.990, 4.894
51.000, 2.902
51.010, 2.910
51.020, 5.919
51.030, 0.072
51.040, 4.834
51.050, 7.843
51.060, 7.851
51.070, 5.859
51.080, 0.868
51.090, 4.876
51.100, 3.883
51.110, 2.800
51.120, 3.808
51.130, 0.210
51.140, 1.797
51.150, 4.659
51.160, 3.666
51.170, 4.672
51.180, 1.679
51.190, 3.686
51.200, 0.692
51.210, 10.699
51.220, 3.705
51.230, 3.711
51.240, 3.717
51.250, 3.592
51.260, 0.402
51.270, 4.603
51.280, 3.608
51.290, 6.613
51.300, 4.618
51.310, 0.623
51.320, 5.628
51.330, 0.633
51.340, 3.637
51.350, 5.642
51.360, 7.646
51.370, 4.650
51.380, 9.655
51.390, 2.659
51.400, 6.664
51.410, 2.668
51.420, 4.672
51.430, 4.676
51.440, 3.680
51.450, 0.316
51.460, 0.313
51.470, 4.691
51.480, 1.694
51.490, 5.697
51.500, 2.699
51.510, 3.702
51.520, 4.705
51.530, 0.292
51.540, 3.711
51.550, 3.714
51.560, 2.717
51.570, 2.720
51.580, 2.723
51.590, 6.725
51.600, 1.728
51.610, 1.730
51.620, 4.733
51.630, 0.265
51.640, 3.738
51.650, 2.740
51.660, 4.742
51.670, 3.744
51.680, 0.746
51.690, 7.748
51.700, 3.751
51.710, 0.753
51.720, 0.755
51.730, 5.757
51.740, 8.760
51.750, 4.763
51.760, 5.766
51.770, 0.752
51.780, 2.755
51.790, 5.758
51.800, 5.761
51.810, 4.764
51.820, 7.767
51.830, 2.640
51.840, 4.643
51.850, 4.647
51.860, 0.650
51.870, 1.652
51.880, 2.656
51.890, 0.341
51.900, 3.662
51.910, 3.666
51.920, 3.669
51.930, 4.672
51.940, 2.792
51.950, 4.787
51.960, 8.790
51.970, 4.794
51.980, 7.551
51.990, 5.554
52.000, 10.557
52.010, 0.504
52.020, 6.507
52.030, 0.543
52.040, 1.460
52.050, 3.463
52.060, 4.466
52.070, 3.470
52.080, 2.473
52.090, 6.476
52.100, 3.480
52.110, 5.483
52.120, 2.485
52.130, 2.488
52.140, 6.491
52.150, 1.506
52.160, 3.496
52.170, 1.498
52.180, 7.398
52.190, 3.400
52.200, 4.403
52.210, 1.452
52.220, 6.627
52.230, 1.640
52.240, 6.643
52.250, 5.645
52.260, 2.648
52.270, 4.650
52.280, 0.650
52.290, 0.653
52.300, 8.655
52.310, 1.702
52.320, 4.705
52.330, 2.670
52.340, 3.673
52.350, 4.677
52.360, 1.681
52.370, 7.684
52.380, 6.688
52.390, 3.691
52.400, 4.692
52.410, 4.696
52.420, 7.699
52.430, 3.702
52.440, 3.706
52.450, 8.709
52.460, 4.673
52.470, 13.677
52.480, 12.681
52.490, 15.685
52.500, 10.689
52.510, 7.692
52.520, 5.696
52.530, 6.700
52.540, 2.704
52.550, 5.708
52.560, 4.712
52.570, 3.716
52.580, 5.720
52.590, 2.725
52.600, 7.729
52.610, 5.733
52.620, 4.737
52.630, 3.741
52.640, 5.746
52.650, 3.719
52.660, 5.693
52.670, 3.697
52.680, 12.701
52.690, 1.705
52.700, 9.709
52.710, 6.713
52.720, 1.717
52.730, 7.694
52.740, 2.698
52.750, 2.702
52.760, 3.706
52.770, 4.711
52.780, 2.715
52.790, 0.719
52.800, 7.754
52.810, 5.759
52.820, 3.764
52.830, 6.745
52.840, 3.778
52.850, 4.783
52.860, 3.788
52.870, 5.792
52.880, 2.797
52.890, 0.802
52.900, 2.806
52.910, 5.811
52.920, 2.907
52.930, 2.911
52.940, 3.916
52.950, 7.921
52.960, 6.925
52.970, 1.930
52.980, 8.935
52.990, 3.939
53.000, 4.944
53.010, 2.977
53.020, 7.072
53.030, 11.077
53.040, 6.082
53.050, 7.088
53.060, 3.093
53.070, 9.098
53.080, 8.103
53.090, 2.087
53.100, 3.092
53.110, 3.097
53.120, 1.102
53.130, 1.893
53.140, 0.111
53.150, 3.148
53.160, 5.152
53.170, 5.156
53.180, 4.161
53.190, 2.166
53.200, 12.170
53.210, 3.175
53.220, 0.180
53.230, 4.194
53.240, 4.199
53.250, 6.204
53.260, 0.209
53.270, 8.215
53.280, 4.220
53.290, 0.225
53.300, 1.230
53.310, 2.235
53.320, 2.240
53.330, 4.245
53.340, 1.285
53.350, 2.205
53.360, 1.210
53.370, 7.215
53.380, 1.220
53.390, 0.226
53.400, 0.769
53.410, 2.764
53.420, 0.761
53.430, 4.243
53.440, 3.246
53.450, 0.249
53.460, 7.252
53.470, 0.256
53.480, 5.260
53.490, 4.302
53.500, 0.694
53.510, 1.309
53.520, 4.313
53.530, 5.317
53.540, 5.320
53.550, 0.324
53.560, 5.327
53.570, 2.331
53.580, 6.334
53.590, 6.338
53.600, 4.342
53.610, 2.345
53.620, 5.349
53.630, 6.353
53.640, 2.357
53.650, 4.360
53.660, 7.364
53.670, 5.368
53.680, 0.372
53.690, 0.375
53.700, 0.379
53.710, 2.486
53.720, 5.490
53.730, 1.494
53.740, 6.497
53.750, 1.501
53.760, 4.504
53.770, 2.508
53.780, 0.511
53.790, 1.514
53.800, 4.517
53.810, 1.521
53.820, 1.524
53.830, 6.527
53.840, 0.530
53.850, 4.533
53.860, 2.536
53.870, 4.539
53.880, 0.543
53.890, 8.546
53.900, 3.549
53.910, 8.553
53.920, 4.556
53.930, 5.560
53.940, 2.563
53.950, 0.567
53.960, 0.571
53.970, 4.575
53.980, 3.682
53.990, 0.314
54.000, 1.733
54.010, 2.736
54.020, 2.739
54.030, 0.257
54.040, 3.746
54.050, 3.749
54.060, 1.752
54.070, 3.755
54.080, 6.757
54.090, 4.760
54.100, 6.763
54.110, 1.235
54.120, 7.767
54.130, 3.768
54.140, 3.770
54.150, 8.771
54.160, 3.773
54.170, 3.774
54.180, 3.775
54.190, 0.776
54.200, 0.222
54.210, 1.221
54.220, 7.779
54.230, 3.778
54.240, 3.778
54.250, 1.778
54.260, 3.777
54.270, 6.777
54.280, 1.776
54.290, 2.776
54.300, 1.775
54.310, 2.775
54.320, 5.774
54.330, 4.657
54.340, 0.345
54.350, 2.654
54.360, 5.652
54.370, 3.651
54.380, 2.649
54.390, 3.648
54.400, 3.646
54.410, 2.645
54.420, 0.358
54.430, 2.640
54.440, 7.638
54.450, 4.635
54.460, 3.632
54.470, 0.630
54.480, 2.628
54.490, 0.624
54.500, 5.622
54.510, 2.619
54.520, 4.617
54.530, 0.386
54.540, 2.625
54.550, 2.623
54.560, 1.620
54.570, 3.633
54.580, 4.630
54.590, 4.627
54.600, 3.577
54.610, 3.419
54.620, 7.369
54.630, 4.366
54.640, 6.364
54.650, 5.441
54.660, 4.438
54.670, 3.580
54.680, 0.423
54.690, 3.573
54.700, 0.525
54.710, 2.521
54.720, 5.518
54.730, 4.514
54.740, 2.510
54.750, 2.505
54.760, 8.501
54.770, 0.497
54.780, 4.582
54.790, 4.578
54.800, 1.601
54.810, 2.597
54.820, 0.592
54.830, 1.588
54.840, 1.583
54.850, 2.578
54.860, 0.574
54.870, 1.569
54.880, 0.595
54.890, 4.590
54.900, 1.416
54.910, 4.578
54.920, 6.572
54.930, 5.566
54.940, 2.560
54.950, 4.553
54.960, 1.547
54.970, 2.540
54.980, 2.533
54.990, 3.527
55.000, 8.520
55.010, 4.513
55.020, 0.506
55.030, 2.500
55.040, 1.492
55.050, 7.485
55.060, 2.478
55.070, 1.471
55.080, 2.572
55.090, 4.564
55.100, 2.557
55.110, 10.549
55.120, 3.542
55.130, 0.534
55.140, 3.700
55.150, 3.692
55.160, 3.685
55.170, 1.323
55.180, 2.668
55.190, 0.372
55.200, 4.619
55.210, 2.609
55.220, 2.600
55.230, 0.562
55.240, 7.552
55.250, 0.542
55.260, 2.532
55.270, 5.523
55.280, 5.513
55.290, 6.503
55.300, 5.493
55.310, 2.392
55.320, 6.382
55.330, 1.372
55.340, 3.361
55.350, 6.351
55.360, 3.341
55.370, 3.331
55.380, 2.320
55.390, 4.310
55.400, 0.271
55.410, 5.170
55.420, 4.159
55.430, 7.149
55.440, 5.138
55.450, 4.128
55.460, 3.117
55.470, 6.106
55.480, 7.095
55.490, 3.085
55.500, 2.074
55.510, 3.063
55.520, 5.052
55.530, 7.042
55.540, 0.999
55.550, 3.988
55.560, 6.978
55.570, 3.967
55.580, 8.957
55.590, 0.946
55.600, 3.936
55.610, 2.925
55.620, 4.881
55.630, 2.871
55.640, 2.860
55.650, 3.850
55.660, 12.839
55.670, 5.828
55.680, 0.818
55.690, 5.823
55.700, 0.813
55.710, 6.802
55.720, 2.792
55.730, 0.119
55.740, 0.870
55.750, 1.859
55.760, 0.151
55.770, 2.838
55.780, 2.827
55.790, 0.816
55.800, 0.195
55.810, 8.795
55.820, 0.785
55.830, 3.775
55.840, 1.235
55.850, 1.755
55.860, 2.256
55.870, 0.732
55.880, 1.682
55.890, 3.670
55.900, 2.658
55.910, 6.647
55.920, 3.635
55.930, 4.623
55.940, 5.612
55.950, 2.600
55.960, 3.589
55.970, 1.423
55.980, 1.565
55.990, 0.447
56.000, 5.540
56.010, 4.528
56.020, 3.516
56.030, 3.503
56.040, 1.491
56.050, 0.479
56.060, 4.466
56.070, 0.546
56.080, 5.442
56.090, 1.429
56.100, 3.313
56.110, 1.301
56.120, 1.288
56.130, 6.276
56.140, 4.264
56.150, 7.252
56.160, 5.240
56.170, 6.229
56.180, 4.217
56.190, 3.206
56.200, 9.194
56.210, 6.183
56.220, 5.171
56.230, 8.160
56.240, 3.148
56.250, 4.137
56.260, 1.126
56.270, 1.885
56.280, 9.103
56.290, 3.091
56.300, 5.079
56.310, 8.067
56.320, 3.056
56.330, 2.955
56.340, 2.033
56.350, 1.021
56.360, 6.009
56.370, 3.894
56.380, 1.883
56.390, 3.829
56.400, 6.818
56.410, 4.807
56.420, 3.797
56.430, 6.786
56.440, 4.775
56.450, 3.765
56.460, 10.754
56.470, 10.744
56.480, 6.734
56.490, 6.724
56.500, 10.714
56.510, 10.705
56.520, 14.695
56.530, 15.686
56.540, 10.677
56.550, 19.668
56.560, 24.659
56.570, 38.650
56.580, 29.642
56.590, 35.633
56.600, 27.625
56.610, 27.617
56.620, 23.609
56.630, 24.602
56.640, 15.594
56.650, 13.587
56.660, 21.580
56.670, 16.573
56.680, 6.565
56.690, 15.558
56.700, 16.552
56.710, 12.545
56.720, 17.538
56.730, 16.532
56.740, 8.525
56.750, 14.520
56.760, 12.514
56.770, 3.508
56.780, 6.503
56.790, 17.498
56.800, 18.493
56.810, 6.487
56.820, 9.483
56.830, 6.478
56.840, 16.473
56.850, 11.469
56.860, 9.464
56.870, 11.460
56.880, 0.545
56.890, 1.451
56.900, 4.447
56.910, 3.444
56.920, 2.560
56.930, 1.422
56.940, 2.418
56.950, 6.414
56.960, 7.395
56.970, 8.391
56.980, 4.387
56.990, 5.383
57.000, 5.362
57.010, 7.359
57.020, 3.355
57.030, 1.352
57.040, 8.267
57.050, 4.264
57.060, 3.116
57.070, 3.113
57.080, 6.110
57.090, 8.108
57.100, 7.105
57.110, 10.103
57.120, 4.100
57.130, 6.098
57.140, 4.096
57.150, 8.094
57.160, 5.092
57.170, 9.001
57.180, 3.041
57.190, 4.012
57.200, 7.011
57.210, 10.010
57.220, 13.009
57.230, 3.008
57.240, 9.007
57.250, 9.006
57.260, 11.005
57.270, 6.973
57.280, 10.973
57.290, 26.973
57.300, 9.973
57.310, 13.973
57.320, 20.008
57.330, 25.009
57.340, 29.010
57.350, 30.105
57.360, 40.106
57.370, 35.107
57.380, 28.109
57.390, 64.110
57.400, 46.112
57.410, 61.114
57.420, 49.116
57.430, 51.118
57.440, 46.121
57.450, 60.124
57.460, 44.127
57.470, 32.022
57.480, 31.025
57.490, 36.049
57.500, 27.136
57.510, 44.139
57.520, 46.288
57.530, 40.118
57.540, 32.123
57.550, 35.127
57.560, 44.272
57.570, 31.289
57.580, 32.294
57.590, 36.300
57.600, 30.306
57.610, 34.312
57.620, 24.317
57.630, 21.323
57.640, 24.340
57.650, 14.346
57.660, 18.352
57.670, 17.358
57.680, 7.365
57.690, 7.371
57.700, 17.378
57.710, 11.384
57.720, 15.391
57.730, 6.398
57.740, 15.475
57.750, 5.482
57.760, 6.489
57.770, 7.504
57.780, 3.511
57.790, 11.518
57.800, 2.526
57.810, 5.533
57.820, 5.541
57.830, 2.548
57.840, 7.562
57.850, 3.570
57.860, 4.578
57.870, 13.586
57.880, 3.593
57.890, 7.608
57.900, 7.616
57.910, 2.624
57.920, 2.638
57.930, 3.646
57.940, 6.783
57.950, 0.792
57.960, 7.800
57.970, 7.808
57.980, 7.816
57.990, 14.825
58.000, 5.833
58.010, 12.842
58.020, 9.856
58.030, 11.864
58.040, 6.873
58.050, 15.882
58.060, 17.890
58.070, 15.899
58.080, 15.892
58.090, 10.029
58.100, 15.037
58.110, 13.046
58.120, 13.920
58.130, 1.928
58.140, 10.937
58.150, 8.946
58.160, 5.955
58.170, 8.964
58.180, 6.973
58.190, 7.982
58.200, 11.991
58.210, 6.001
58.220, 0.010
58.230, 12.025
58.240, 14.035
58.250, 6.044
58.260, 5.061
58.270, 8.071
58.280, 9.081
58.290, 12.091
58.300, 8.102
58.310, 7.118
58.320, 4.129
58.330, 6.139
58.340, 0.149
58.350, 8.166
58.360, 2.176
58.370, 0.813
58.380, 7.198
58.390, 6.208
58.400, 0.226
58.410, 2.236
58.420, 2.247
58.430, 0.264
58.440, 3.275
58.450, 5.285
58.460, 3.303
58.470, 5.314
58.480, 5.324
58.490, 4.343
58.500, 5.353
58.510, 0.636
58.520, 2.374
58.530, 10.455
58.540, 1.535
58.550, 1.475
58.560, 6.484
58.570, 0.493
58.580, 0.503
58.590, 3.512
58.600, 2.522
58.610, 2.531
58.620, 1.678
58.630, 10.687
58.640, 2.696
58.650, 4.706
58.660, 5.715
58.670, 0.724
58.680, 0.266
58.690, 1.257
58.700, 5.752
58.710, 2.240
58.720, 2.853
58.730, 3.884
58.740, 2.892
58.750, 2.100
58.760, 0.002
58.770, 7.004
58.780, 3.011
58.790, 2.017
58.800, 2.023
58.810, 7.029
58.820, 1.036
58.830, 0.042
58.840, 2.048
58.850, 1.053
58.860, 6.059
58.870, 4.065
58.880, 7.071
58.890, 3.076
58.900, 2.082
58.910, 2.087
58.920, 4.093
58.930, 0.902
58.940, 3.103
58.950, 5.108
58.960, 0.150
58.970, 3.155
58.980, 4.159
58.990, 4.163
59.000, 2.168
59.010, 5.172
59.020, 3.176
59.030, 0.180
59.040, 5.184
59.050, 3.188
59.060, 4.192
59.070, 2.195
59.080, 0.199
59.090, 7.202
59.100, 1.206
59.110, 0.209
59.120, 2.212
59.130, 1.784
59.140, 2.218
59.150, 2.219
59.160, 5.221
59.170, 4.223
59.180, 4.225
59.190, 3.226
59.200, 6.228
59.210, 0.229
59.220, 6.231
59.230, 7.232
59.240, 4.233
59.250, 1.234
59.260, 6.236
59.270, 2.237
59.280, 1.762
59.290, 3.237
59.300, 4.237
59.310, 10.237
59.320, 6.237
59.330, 3.237
59.340, 3.237
59.350, 4.237
59.360, 10.237
59.370, 5.237
59.380, 3.237
59.390, 2.237
59.400, 1.236
59.410, 4.236
59.420, 0.235
59.430, 6.234
59.440, 4.234
59.450, 0.234
59.460, 1.233
59.470, 4.233
59.480, 3.232
59.490, 3.232
59.500, 0.231
59.510, 4.230
59.520, 1.230
59.530, 2.229
59.540, 0.228
59.550, 7.227
59.560, 4.225
59.570, 4.183
59.580, 2.182
59.590, 0.180
59.600, 2.179
59.610, 8.177
59.620, 0.176
59.630, 5.174
59.640, 4.172
59.650, 0.171
59.660, 2.169
59.670, 4.166
59.680, 0.164
59.690, 4.162
59.700, 1.160
59.710, 1.124
59.720, 0.878
59.730, 4.119
59.740, 2.023
59.750, 1.020
59.760, 1.017
59.770, 3.014
59.780, 1.011
59.790, 2.008
59.800, 3.005
59.810, 1.998
59.820, 4.997
59.830, 4.993
59.840, 4.988
59.850, 6.983
59.860, 0.979
59.870, 3.974
59.880, 2.948
59.890, 3.860
59.900, 3.855
59.910, 1.295
59.920, 0.301
59.930, 5.693
59.940, 6.687
59.950, 1.459
59.960, 2.522
59.970, 3.515
59.980, 3.508
59.990, 3.502
60.000, 1.495
60.010, 4.488
60.020, 4.482
60.030, 0.465
60.040, 3.458
60.050, 0.451
60.060, 1.445
60.070, 1.438
60.080, 5.431
60.090, 3.425
60.100, 0.418
60.110, 1.411
60.120, 3.404
60.130, 0.327
60.140, 5.320
60.150, 0.687
60.160, 1.299
60.170, 5.292
60.180, 2.285
60.190, 1.277
60.200, 1.270
60.210, 1.263
60.220, 0.256
60.230, 7.242
60.240, 2.235
60.250, 1.228
60.260, 2.221
60.270, 6.214
60.280, 0.201
60.290, 0.194
60.300, 1.186
60.310, 3.173
60.320, 4.166
60.330, 6.030
60.340, 1.023
60.350, 7.015
60.360, 7.008
60.370, 7.001
60.380, 7.994
60.390, 1.987
60.400, 6.980
60.410, 6.967
60.420, 9.960
60.430, 5.953
60.440, 1.946
60.450, 4.939
60.460, 10.933
60.470, 9.926
60.480, 7.790
60.490, 9.783
60.500, 15.777
60.510, 10.770
60.520, 7.763
60.530, 6.756
60.540, 2.749
60.550, 8.742
60.560, 10.736
60.570, 6.729
60.580, 9.722
60.590, 7.716
60.600, 16.709
60.610, 19.703
60.620, 23.690
60.630, 24.684
60.640, 27.818
60.650, 37.805
60.660, 34.799
60.670, 42.793
60.680, 52.786
60.690, 48.780
60.700, 47.767
60.710, 42.761
60.720, 34.755
60.730, 26.748
60.740, 30.736
60.750, 32.744
60.760, 13.738
60.770, 27.747
60.780, 25.741
60.790, 34.728
60.800, 16.722
60.810, 27.716
60.820, 35.717
60.830, 35.711
60.840, 36.705
60.850, 36.692
60.860, 31.687
60.870, 36.694
60.880, 24.681
60.890, 14.751
60.900, 26.758
60.910, 15.753
60.920, 16.677
60.930, 17.671
60.940, 23.666
60.950, 19.661
60.960, 28.657
60.970, 29.652
60.980, 33.647
60.990, 20.642
61.000, 36.649
61.010, 30.507
61.020, 41.502
61.030, 20.497
61.040, 33.493
61.050, 23.489
61.060, 15.484
61.070, 19.489
61.080, 22.485
61.090, 22.481
61.100, 23.487
61.110, 9.407
61.120, 22.381
61.130, 34.378
61.140, 9.375
61.150, 24.281
61.160, 28.279
61.170, 30.277
61.180, 30.345
61.190, 17.343
61.200, 14.341
61.210, 17.346
61.220, 16.344
61.230, 9.343
61.240, 21.341
61.250, 12.408
61.260, 14.406
61.270, 10.405
61.280, 17.403
61.290, 18.402
61.300, 14.400
61.310, 11.399
61.320, 22.398
61.330, 17.397
61.340, 16.396
61.350, 27.361
61.360, 25.360
61.370, 12.360
61.380, 19.362
61.390, 17.365
61.400, 24.364
61.410, 16.364
61.420, 19.428
61.430, 18.430
61.440, 14.430
61.450, 20.430
61.460, 15.430
61.470, 9.431
61.480, 12.431
61.490, 15.431
61.500, 18.432
61.510, 15.432
61.520, 18.433
61.530, 13.434
61.540, 16.436
61.550, 16.437
61.560, 11.439
61.570, 3.440
61.580, 18.442
61.590, 10.502
61.600, 1.504
61.610, 5.506
61.620, 9.508
61.630, 2.509
61.640, 8.511
61.650, 7.513
61.660, 6.515
61.670, 0.517
61.680, 5.520
61.690, 3.523
61.700, 5.525
61.710, 10.528
61.720, 1.531
61.730, 2.535
61.740, 1.539
61.750, 3.542
61.760, 3.546
61.770, 5.601
61.780, 3.604
61.790, 5.608
61.800, 3.612
61.810, 2.616
61.820, 2.620
61.830, 2.375
61.840, 4.628
61.850, 2.631
61.860, 5.634
61.870, 2.638
61.880, 0.641
61.890, 0.645
61.900, 4.648
61.910, 1.652
61.920, 6.657
61.930, 1.661
61.940, 0.334
61.950, 2.670
61.960, 0.326
61.970, 2.679
61.980, 4.683
61.990, 1.687
62.000, 1.692
62.010, 0.304
62.020, 1.701
62.030, 2.705
62.040, 0.709
62.050, 4.714
62.060, 0.282
62.070, 0.723
62.080, 1.273
62.090, 0.269
62.100, 0.735
62.110, 0.738
62.120, 2.742
62.130, 7.747
62.140, 3.751
62.150, 1.755
62.160, 1.759
62.170, 2.763
62.180, 0.767
62.190, 0.229
62.200, 2.776
62.210, 0.780
62.220, 0.785
62.230, 1.837
62.240, 0.841
62.250, 1.846
62.260, 0.149
62.270, 1.856
62.280, 5.860
62.290, 0.135
62.300, 0.130
62.310, 2.875
62.320, 2.880
62.330, 2.885
62.340, 1.890
62.350, 0.895
62.360, 3.901
62.370, 1.094
62.380, 5.911
62.390, 0.916
62.400, 0.079
62.410, 0.926
62.420, 0.930
62.430, 3.935
62.440, 1.060
62.450, 0.944
62.460, 1.948
62.470, 0.953
62.480, 0.957
62.490, 0.961
62.500, 3.965
62.510, 3.970
62.520, 7.974
62.530, 4.978
62.540, 0.033
62.550, 11.037
62.560, 4.041
62.570, 0.046
62.580, 0.050
62.590, 1.054
62.600, 5.058
62.610, 0.937
62.620, 0.066
62.630, 5.070
62.640, 1.073
62.650, 6.077
62.660, 1.133
62.670, 3.137
62.680, 9.140
62.690, 3.144
62.700, 2.147
62.710, 2.151
62.720, 2.154
62.730, 0.158
62.740, 4.161
62.750, 6.164
62.760, 1.220
62.770, 2.224
62.780, 0.773
62.790, 2.230
62.800, 2.233
62.810, 4.235
62.820, 9.238
62.830, 6.241
62.840, 3.244
62.850, 2.246
62.860, 2.249
62.870, 6.252
62.880, 4.254
62.890, 8.257
62.900, 2.260
62.910, 3.379
62.920, 8.435
62.930, 4.438
62.940, 4.440
62.950, 1.442
62.960, 0.555
62.970, 3.447
62.980, 12.449
62.990, 6.506
63.000, 4.508
63.010, 5.510
63.020, 15.512
63.030, 10.373
63.040, 10.375
63.050, 15.432
63.060, 16.434
63.070, 21.435
63.080, 21.437
63.090, 14.438
63.100, 20.621
63.110, 16.622
63.120, 13.624
63.130, 8.625
63.140, 9.612
63.150, 6.613
63.160, 6.600
63.170, 12.601
63.180, 4.603
63.190, 17.604
63.200, 12.605
63.210, 16.592
63.220, 11.593
63.230, 14.594
63.240, 16.595
63.250, 8.596
63.260, 7.584
63.270, 9.585
63.280, 9.510
63.290, 5.498
63.300, 6.499
63.310, 8.500
63.320, 12.501
63.330, 5.502
63.340, 4.502
63.350, 8.503
63.360, 6.504
63.370, 0.504
63.380, 6.505
63.390, 4.493
63.400, 6.494
63.410, 3.494
63.420, 0.505
63.430, 6.495
63.440, 5.495
63.450, 5.495
63.460, 8.485
63.470, 6.485
63.480, 5.485
63.490, 5.476
63.500, 6.467
63.510, 0.467
63.520, 2.467
63.530, 3.466
63.540, 1.466
63.550, 6.466
63.560, 2.465
63.570, 4.396
63.580, 2.396
63.590, 8.396
63.600, 3.389
63.610, 5.389
63.620, 0.390
63.630, 6.390
63.640, 5.321
63.650, 5.321
63.660, 3.321
63.670, 1.321
63.680, 2.321
63.690, 4.321
63.700, 0.321
63.710, 2.321
63.720, 0.321
63.730, 0.679
63.740, 3.317
63.750, 4.317
63.760, 3.316
63.770, 2.313
63.780, 0.309
63.790, 0.309
63.800, 1.308
63.810, 6.244
63.820, 0.241
63.830, 0.240
63.840, 5.240
63.850, 0.761
63.860, 4.238
63.870, 0.237
63.880, 1.236
63.890, 4.235
63.900, 1.234
63.910, 1.233
63.920, 2.232
63.930, 3.230
63.940, 1.229
63.950, 0.772
63.960, 6.226
63.970, 7.225
63.980, 4.165
63.990, 3.163
64.000, 3.162
64.010, 1.160
64.020, 7.159
64.030, 4.157
64.040, 3.156
64.050, 2.154
64.060, 0.153
64.070, 3.152
64.080, 1.151
64.090, 0.149
64.100, 1.851
64.110, 0.853
64.120, 3.145
64.130, 5.143
64.140, 6.140
64.150, 1.138
64.160, 0.085
64.170, 1.083
64.180, 0.919
64.190, 2.079
64.200, 1.076
64.210, 5.073
64.220, 2.071
64.230, 0.069
64.240, 0.933
64.250, 1.065
64.260, 0.062
64.270, 2.060
64.280, 7.058
64.290, 2.944
64.300, 3.052
64.310, 10.049
64.320, 2.045
64.330, 2.041
64.340, 2.038
64.350, 2.034
64.360, 7.031
64.370, 9.028
64.380, 3.025
64.390, 1.022
64.400, 1.019
64.410, 2.016
64.420, 6.013
64.430, 7.010
64.440, 6.007
64.450, 2.005
64.460, 8.002
64.470, 5.000
64.480, 2.998
64.490, 0.004
64.500, 9.995
64.510, 16.993
64.520, 5.991
64.530, 3.989
64.540, 6.988
64.550, 9.986
64.560, 10.985
64.570, 13.983
64.580, 19.981
64.590, 14.980
64.600, 22.979
64.610, 26.977
64.620, 19.929
64.630, 36.928
64.640, 20.927
64.650, 26.925
64.660, 39.924
64.670, 38.923
64.680, 46.922
64.690, 29.921
64.700, 31.920
64.710, 39.919
64.720, 29.919
64.730, 36.918
64.740, 27.918
64.750, 21.917
64.760, 18.063
64.770, 14.063
64.780, 17.063
64.790, 25.064
64.800, 27.065
64.810, 16.065
64.820, 25.066
64.830, 23.067
64.840, 29.068
64.850, 32.069
64.860, 20.071
64.870, 29.072
64.880, 24.073
64.890, 24.075
64.900, 21.076
64.910, 19.078
64.920, 15.079
64.930, 14.031
64.940, 13.033
64.950, 7.041
64.960, 18.048
64.970, 3.051
64.980, 11.053
64.990, 5.055
65.000, 7.057
65.010, 13.060
65.020, 9.063
65.030, 6.066
65.040, 8.068
65.050, 4.019
65.060, 14.022
65.070, 8.025
65.080, 6.028
65.090, 7.032
65.100, 3.035
65.110, 2.038
65.120, 6.042
65.130, 8.045
65.140, 2.049
65.150, 1.000
65.160, 2.004
65.170, 5.007
65.180, 11.011
65.190, 4.015
65.200, 1.020
65.210, 4.024
65.220, 3.029
65.230, 8.033
65.240, 5.038
65.250, 3.094
65.260, 2.098
65.270, 5.103
65.280, 4.108
65.290, 5.225
65.300, 7.114
65.310, 1.065
65.320, 3.070
65.330, 9.075
65.340, 6.080
65.350, 5.085
65.360, 4.090
65.370, 0.096
65.380, 5.046
65.390, 4.052
65.400, 8.057
65.410, 9.063
65.420, 3.069
65.430, 10.075
65.440, 5.025
65.450, 3.031
65.460, 2.037
65.470, 14.085
65.480, 17.091
65.490, 6.916
65.500, 9.923
65.510, 16.929
65.520, 14.935
65.530, 15.942
65.540, 7.949
65.550, 18.955
65.560, 26.999
65.570, 12.006
65.580, 24.013
65.590, 20.020
65.600, 26.027
65.610, 34.034
65.620, 18.076
65.630, 23.118
65.640, 21.125
65.650, 22.132
65.660, 25.173
65.670, 21.181
65.680, 23.188
65.690, 11.195
65.700, 14.202
65.710, 22.210
65.720, 19.217
65.730, 12.225
65.740, 13.232
65.750, 18.240
65.760, 13.248
65.770, 13.255
65.780, 12.263
65.790, 5.271
65.800, 16.279
65.810, 18.287
65.820, 20.295
65.830, 11.303
65.840, 6.311
65.850, 12.319
65.860, 7.328
65.870, 6.336
65.880, 6.345
65.890, 4.353
65.900, 10.362
65.910, 3.370
65.920, 2.379
65.930, 4.475
65.940, 5.484
65.950, 2.507
65.960, 4.500
65.970, 3.508
65.980, 2.606
65.990, 7.613
66.000, 2.621
66.010, 6.629
66.020, 3.637
66.030, 5.670
66.040, 4.678
66.050, 2.686
66.060, 2.694
66.070, 5.702
66.080, 3.710
66.090, 4.718
66.100, 7.726
66.110, 1.821
66.120, 0.829
66.130, 3.837
66.140, 0.155
66.150, 0.146
66.160, 1.862
66.170, 3.871
66.180, 6.879
66.190, 4.887
66.200, 3.896
66.210, 7.904
66.220, 0.934
66.230, 2.942
66.240, 7.950
66.250, 3.959
66.260, 1.968
66.270, 1.997
66.280, 0.006
66.290, 2.014
66.300, 3.023
66.310, 0.031
66.320, 7.040
66.330, 0.048
66.340, 6.057
66.350, 3.086
66.360, 4.095
66.370, 6.104
66.380, 5.112
66.390, 5.203
66.400, 1.212
66.410, 9.221
66.420, 1.229
66.430, 10.238
66.440, 0.753
66.450, 4.255
66.460, 4.264
66.470, 9.272
66.480, 1.720
66.490, 4.288
66.500, 3.295
66.510, 3.303
66.520, 6.311
66.530, 3.319
66.540, 6.328
66.550, 6.336
66.560, 2.344
66.570, 4.353
66.580, 0.362
66.590, 1.371
66.600, 3.399
66.610, 4.407
66.620, 9.416
66.630, 1.425
66.640, 5.434
66.650, 3.442
66.660, 0.549
66.670, 0.460
66.680, 3.468
66.690, 3.477
66.700, 1.486
66.710, 1.496
66.720, 1.526
66.730, 4.535
66.740, 1.544
66.750, 0.447
66.760, 4.561
66.770, 1.570
66.780, 3.578
66.790, 2.587
66.800, 1.595
66.810, 0.396
66.820, 0.388
66.830, 4.619
66.840, 0.627
66.850, 0.366
66.860, 3.641
66.870, 4.649
66.880, 7.656
66.890, 3.663
66.900, 6.670
66.910, 4.677
66.920, 2.684
66.930, 0.690
66.940, 1.697
66.950, 1.704
66.960, 3.711
66.970, 2.717
66.980, 2.724
66.990, 1.730
67.000, 2.737
67.010, 2.743
67.020, 2.750
67.030, 0.756
67.040, 0.794
67.050, 2.800
67.060, 5.806
67.070, 6.812
67.080, 4.818
67.090, 2.824
67.100, 5.830
67.110, 1.836
67.120, 1.158
67.130, 3.847
67.140, 2.852
67.150, 4.711
67.160, 0.751
67.170, 1.244
67.180, 3.760
67.190, 5.764
67.200, 2.807
67.210, 1.811
67.220, 0.185
67.230, 0.818
67.240, 4.822
67.250, 2.826
67.260, 0.830
67.270, 6.833
67.280, 1.837
67.290, 1.840
67.300, 1.156
67.310, 7.846
67.320, 2.849
67.330, 3.896
67.340, 3.893
67.350, 5.889
67.360, 5.892
67.370, 0.894
67.380, 0.897
67.390, 5.899
67.400, 4.901
67.410, 0.097
67.420, 4.905
67.430, 4.907
67.440, 1.909
67.450, 0.910
67.460, 0.088
67.470, 4.913
67.480, 3.914
67.490, 3.916
67.500, 3.917
67.510, 1.918
67.520, 3.919
67.530, 0.920
67.540, 0.079
67.550, 4.922
67.560, 7.922
67.570, 3.923
67.580, 1.024
67.590, 0.976
67.600, 1.975
67.610, 3.975
67.620, 3.975
67.630, 1.974
67.640, 3.922
67.650, 1.922
67.660, 4.921
67.670, 5.921
67.680, 4.808
67.690, 1.807
67.700, 3.806
67.710, 3.805
67.720, 4.804
67.730, 5.924
67.740, 4.923
67.750, 5.922
67.760, 3.979
67.770, 0.978
67.780, 3.977
67.790, 0.025
67.800, 3.974
67.810, 4.974
67.820, 5.972
67.830, 2.971
67.840, 5.969
67.850, 3.967
67.860, 1.923
67.870, 6.924
67.880, 3.922
67.890, 4.919
67.900, 3.917
67.910, 0.085
67.920, 6.912
67.930, 0.909
67.940, 4.907
67.950, 2.867
67.960, 2.864
67.970, 4.861
67.980, 2.858
67.990, 4.855
68.000, 1.852
68.010, 5.813
68.020, 4.775
68.030, 4.772
68.040, 5.769
68.050, 1.731
68.060, 1.728
68.070, 3.725
68.080, 8.721
68.090, 3.718
68.100, 7.714
68.110, 1.710
68.120, 4.707
68.130, 4.703
68.140, 5.699
68.150, 0.695
68.160, 3.692
68.170, 0.688
68.180, 3.684
68.190, 4.680
68.200, 3.676
68.210, 4.672
68.220, 2.668
68.230, 0.336
68.240, 2.659
68.250, 2.655
68.260, 3.650
68.270, 2.646
68.280, 1.641
68.290, 0.636
68.300, 1.632
68.310, 4.627
68.320, 0.534
68.330, 5.600
68.340, 0.596
68.350, 0.409
68.360, 0.587
68.370, 1.492
68.380, 2.487
68.390, 0.517
68.400, 3.478
68.410, 0.473
68.420, 2.443
68.430, 3.437
68.440, 6.446
68.450, 1.440
68.460, 4.435
68.470, 2.430
68.480, 6.425
68.490, 2.420
68.500, 5.328
68.510, 1.323
68.520, 0.683
68.530, 2.327
68.540, 5.336
68.550, 2.330
68.560, 3.325
68.570, 1.319
68.580, 0.313
68.590, 4.308
68.600, 5.303
68.610, 1.276
68.620, 1.270
68.630, 3.265
68.640, 4.259
68.650, 4.254
68.660, 3.227
68.670, 6.235
68.680, 4.230
68.690, 3.224
68.700, 3.219
68.710, 5.213
68.720, 6.208
68.730, 0.203
68.740, 5.177
68.750, 4.171
68.760, 3.166
68.770, 0.839
68.780, 2.074
68.790, 5.068
68.800, 0.062
68.810, 3.056
68.820, 1.051
68.830, 1.045
68.840, 1.040
68.850, 2.035
68.860, 5.030
68.870, 2.025
68.880, 5.020
68.890, 4.015
68.900, 3.011
68.910, 3.007
68.920, 1.998
68.930, 2.997
68.940, 1.991
68.950, 1.014
68.960, 8.980
68.970, 3.974
68.980, 5.968
68.990, 3.944
69.000, 0.062
69.010, 10.932
69.020, 6.926
69.030, 7.921
69.040, 6.915
69.050, 6.909
69.060, 0.096
69.070, 0.899
69.080, 5.894
69.090, 8.889
69.100, 9.884
69.110, 7.858
69.120, 11.854
69.130, 1.849
69.140, 15.844
69.150, 11.840
69.160, 7.835
69.170, 8.831
69.180, 7.826
69.190, 9.822
69.200, 16.817
69.210, 12.813
69.220, 12.809
69.230, 7.805
69.240, 11.801
69.250, 8.798
69.260, 4.794
69.270, 8.791
69.280, 5.788
69.290, 8.785
69.300, 4.782
69.310, 4.779
69.320, 1.776
69.330, 4.773
69.340, 3.770
69.350, 5.768
69.360, 14.765
69.370, 6.762
69.380, 6.760
69.390, 6.757
69.400, 3.755
69.410, 11.752
69.420, 5.750
69.430, 7.716
69.440, 4.714
69.450, 2.712
69.460, 7.709
69.470, 3.707
69.480, 2.705
69.490, 1.703
69.500, 8.701
69.510, 3.699
69.520, 1.303
69.530, 4.695
69.540, 2.693
69.550, 4.657
69.560, 6.655
69.570, 2.654
69.580, 5.653
69.590, 8.614
69.600, 1.613
69.610, 4.612
69.620, 3.611
69.630, 0.390
69.640, 0.609
69.650, 4.608
69.660, 6.607
69.670, 6.606
69.680, 1.606
69.690, 2.605
69.700, 2.605
69.710, 4.605
69.720, 0.440
69.730, 0.441
69.740, 3.559
69.750, 2.559
69.760, 0.559
69.770, 2.559
69.780, 0.604
69.790, 3.605
69.800, 4.605
69.810, 4.605
69.820, 0.605
69.830, 2.605
69.840, 1.606
69.850, 0.606
69.860, 0.393
69.870, 0.608
69.880, 5.608
69.890, 1.651
69.900, 7.652
69.910, 1.652
69.920, 7.653
69.930, 1.654
69.940, 2.655
69.950, 2.657
69.960, 1.658
69.970, 2.607
69.980, 3.608
69.990, 2.610
70.000, 4.651
70.010, 3.653
70.020, 3.655
70.030, 2.656
70.040, 5.697
70.050, 1.699
70.060, 3.701
70.070, 4.703
70.080, 4.742
70.090, 1.744
70.100, 1.746
70.110, 7.749
70.120, 7.630
70.130, 9.632
70.140, 6.635
70.150, 5.578
70.160, 4.581
70.170, 8.584
70.180, 5.620
70.190, 10.623
70.200, 10.624
70.210, 13.627
70.220, 10.630
70.230, 11.632
70.240, 14.635
70.250, 11.671
70.260, 8.671
70.270, 5.769
70.280, 11.772
70.290, 8.776
70.300, 10.779
70.310, 7.782
70.320, 14.785
70.330, 16.789
70.340, 11.793
70.350, 5.796
70.360, 5.800
70.370, 4.803
70.380, 7.807
70.390, 8.811
70.400, 12.814
70.410, 13.818
70.420, 11.822
70.430, 12.826
70.440, 6.830
70.450, 3.925
70.460, 3.957
70.470, 15.961
70.480, 10.965
70.490, 8.969
70.500, 5.973
70.510, 5.005
70.520, 2.009
70.530, 4.013
70.540, 8.017
70.550, 2.021
70.560, 2.025
70.570, 7.056
70.580, 7.060
70.590, 4.064
70.600, 2.069
70.610, 1.073
70.620, 3.077
70.630, 0.081
70.640, 6.086
70.650, 8.090
70.660, 7.094
70.670, 8.099
70.680, 4.129
70.690, 6.133
70.700, 9.138
70.710, 0.142
70.720, 6.076
70.730, 1.106
70.740, 1.110
70.750, 7.140
70.760, 0.170
70.770, 0.175
70.780, 3.179
70.790, 3.184
70.800, 2.189
70.810, 2.194
70.820, 1.199
70.830, 5.190
70.840, 2.195
70.850, 3.200
70.860, 0.205
70.870, 2.210
70.880, 6.215
70.890, 2.220
70.900, 3.248
70.910, 2.253
70.920, 3.243
70.930, 2.234
70.940, 2.240
70.950, 4.266
70.960, 2.271
70.970, 0.723
70.980, 2.282
70.990, 3.287
71.000, 2.292
71.010, 2.297
71.020, 5.302
71.030, 2.307
71.040, 1.333
71.050, 1.339
71.060, 5.330
71.070, 3.335
71.080, 0.639
71.090, 0.366
71.100, 2.371
71.110, 2.375
71.120, 6.380
71.130, 0.385
71.140, 1.390
71.150, 5.394
71.160, 0.399
71.170, 5.404
71.180, 5.409
71.190, 0.586
71.200, 7.418
71.210, 1.423
71.220, 4.428
71.230, 0.568
71.240, 2.436
71.250, 3.464
71.260, 2.468
71.270, 0.528
71.280, 2.476
71.290, 6.480
71.300, 5.508
71.310, 3.512
71.320, 2.516
71.330, 10.521
71.340, 4.525
71.350, 1.529
71.360, 3.534
71.370, 0.462
71.380, 3.543
71.390, 5.547
71.400, 0.551
71.410, 7.555
71.420, 0.559
71.430, 4.563
71.440, 0.433
71.450, 3.571
71.460, 1.425
71.470, 4.578
71.480, 1.581
71.490, 3.584
71.500, 4.587
71.510, 1.590
71.520, 3.621
71.530, 0.624
71.540, 2.627
71.550, 3.630
71.560, 3.633
71.570, 0.635
71.580, 2.638
71.590, 5.641
71.600, 4.644
71.610, 2.647
71.620, 0.649
71.630, 1.652
71.640, 1.345
71.650, 0.343
71.660, 1.659
71.670, 4.660
71.680, 2.662
71.690, 2.664
71.700, 0.335
71.710, 5.667
71.720, 2.668
71.730, 5.670
71.740, 4.671
71.750, 0.672
71.760, 0.326
71.770, 3.676
71.780, 2.677
71.790, 2.679
71.800, 5.680
71.810, 0.682
71.820, 10.683
71.830, 2.685
71.840, 3.686
71.850, 1.688
71.860, 3.689
71.870, 0.309
71.880, 0.692
71.890, 3.693
71.900, 5.694
71.910, 3.696
71.920, 0.303
71.930, 5.699
71.940, 0.300
71.950, 0.298
71.960, 1.703
71.970, 3.704
71.980, 1.706
71.990, 3.707
72.000, 7.708
72.010, 2.710
72.020, 3.711
72.030, 5.712
72.040, 0.713
72.050, 2.715
72.060, 1.716
72.070, 10.717
72.080, 6.718
72.090, 0.280
72.100, 5.721
72.110, 2.721
72.120, 0.806
72.130, 0.808
72.140, 0.191
72.150, 0.810
72.160, 3.812
72.170, 0.767
72.180, 3.769
72.190, 0.770
72.200, 1.771
72.210, 2.773
72.220, 1.774
72.230, 0.225
72.240, 4.776
72.250, 2.777
72.260, 9.778
72.270, 0.221
72.280, 4.738
72.290, 2.739
72.300, 1.739
72.310, 1.740
72.320, 6.741
72.330, 2.742
72.340, 12.742
72.350, 6.743
72.360, 2.744
72.370, 4.745
72.380, 7.745
72.390, 2.706
72.400, 3.707
72.410, 1.708
72.420, 3.708
72.430, 0.670
72.440, 0.329
72.450, 4.671
72.460, 0.672
72.470, 7.635
72.480, 8.636
72.490, 0.364
72.500, 3.636
72.510, 5.636
72.520, 7.636
72.530, 0.636
72.540, 5.637
72.550, 0.637
72.560, 7.637
72.570, 1.603
72.580, 5.603
72.590, 9.603
72.600, 1.603
72.610, 2.603
72.620, 2.603
72.630, 1.603
72.640, 2.570
72.650, 1.571
72.660, 6.476
72.670, 5.476
72.680, 6.476
72.690, 10.476
72.700, 3.477
72.710, 0.523
72.720, 6.477
72.730, 11.477
72.740, 16.477
72.750, 6.477
72.760, 11.477
72.770, 5.477
72.780, 0.492
72.790, 18.493
72.800, 6.493
72.810, 12.493
72.820, 12.493
72.830, 13.493
72.840, 13.416
72.850, 5.388
72.860, 18.388
72.870, 19.388
72.880, 19.388
72.890, 17.388
72.900, 26.360
72.910, 10.361
72.920, 8.361
72.930, 20.361
72.940, 12.361
72.950, 10.499
72.960, 11.472
72.970, 12.473
72.980, 15.473
72.990, 5.473
73.000, 8.473
73.010, 7.473
73.020, 14.474
73.030, 12.474
73.040, 13.474
73.050, 10.486
73.060, 17.486
73.070, 11.460
73.080, 13.461
73.090, 8.470
73.100, 2.471
73.110, 11.543
73.120, 13.518
73.130, 11.519
73.140, 5.494
73.150, 6.540
73.160, 6.541
73.170, 9.542
73.180, 7.550
73.190, 14.551
73.200, 5.551
73.210, 7.552
73.220, 7.553
73.230, 4.554
73.240, 8.555
73.250, 2.556
73.260, 1.557
73.270, 8.557
73.280, 6.558
73.290, 4.536
73.300, 5.537
73.310, 1.332
73.320, 0.668
73.330, 4.668
73.340, 3.648
73.350, 4.655
73.360, 1.655
73.370, 2.656
73.380, 4.656
73.390, 2.657
73.400, 6.657
73.410, 3.658
73.420, 2.659
73.430, 6.638
73.440, 1.639
73.450, 7.640
73.460, 6.641
73.470, 11.624
73.480, 1.626
73.490, 2.628
73.500, 2.630
73.510, 6.631
73.520, 4.633
73.530, 4.635
73.540, 2.637
73.550, 5.639
73.560, 4.641
73.570, 3.644
73.580, 6.646
73.590, 8.649
73.600, 3.651
73.610, 7.654
73.620, 8.656
73.630, 3.659
73.640, 5.640
73.650, 1.642
73.660, 2.645
73.670, 6.647
73.680, 11.650
73.690, 8.628
73.700, 7.631
73.710, 4.634
73.720, 1.637
73.730, 5.639
73.740, 9.642
73.750, 5.645
73.760, 1.648
73.770, 10.651
73.780, 7.655
73.790, 2.659
73.800, 6.662
73.810, 4.666
73.820, 3.669
73.830, 6.672
73.840, 8.675
73.850, 2.679
73.860, 4.682
73.870, 2.740
73.880, 3.745
73.890, 4.748
73.900, 0.752
73.910, 6.727
73.920, 5.731
73.930, 9.734
73.940, 2.738
73.950, 3.742
73.960, 4.745
73.970, 0.251
73.980, 5.753
73.990, 1.756
74.000, 3.760
74.010, 0.763
74.020, 0.767
74.030, 0.230
74.040, 3.774
74.050, 0.778
74.060, 4.781
74.070, 2.785
74.080, 6.789
74.090, 6.793
74.100, 7.797
74.110, 0.801
74.120, 2.805
74.130, 5.808
74.140, 2.188
74.150, 4.815
74.160, 4.818
74.170, 4.821
74.180, 2.823
74.190, 5.826
74.200, 6.829
74.210, 1.832
74.220, 1.834
74.230, 1.837
74.240, 0.160
74.250, 2.842
74.260, 3.845
74.270, 3.910
74.280, 0.087
74.290, 1.917
74.300, 1.081
74.310, 4.921
74.320, 2.923
74.330, 4.925
74.340, 1.073
74.350, 2.929
74.360, 0.931
74.370, 0.068
74.380, 2.934
74.390, 4.935
74.400, 1.005
74.410, 1.007
74.420, 4.008
74.430, 5.010
74.440, 2.011
74.450, 3.012
74.460, 4.014
74.470, 5.015
74.480, 1.023
74.490, 6.025
74.500, 1.974
74.510, 1.943
74.520, 0.944
74.530, 7.944
74.540, 0.055
74.550, 3.945
74.560, 2.945
74.570, 1.946
74.580, 2.958
74.590, 4.958
74.600, 1.033
74.610, 3.033
74.620, 1.033
74.630, 2.034
74.640, 4.046
74.650, 3.046
74.660, 0.047
74.670, 6.185
74.680, 8.185
74.690, 1.261
74.700, 4.261
74.710, 6.262
74.720, 4.262
74.730, 4.262
74.740, 6.262
74.750, 1.262
74.760, 0.262
74.770, 7.339
74.780, 4.339
74.790, 4.339
74.800, 6.339
74.810, 4.339
74.820, 0.339
74.830, 0.338
74.840, 2.338
74.850, 6.338
74.860, 1.338
74.870, 1.338
74.880, 3.338
74.890, 2.337
74.900, 4.337
74.910, 1.337
74.920, 8.337
74.930, 3.336
74.940, 2.416
74.950, 3.415
74.960, 2.415
74.970, 0.414
74.980, 0.414
74.990, 4.413
75.000, 4.413
75.010, 10.412
75.020, 2.412
75.030, 4.411
75.040, 3.410
75.050, 3.410
75.060, 0.591
75.070, 0.407
75.080, 1.406
75.090, 3.405
75.100, 4.403
75.110, 1.402
75.120, 4.401
75.130, 7.399
75.140, 4.398
75.150, 8.396
75.160, 4.395
75.170, 1.378
75.180, 3.377
75.190, 2.375
75.200, 6.373
75.210, 5.372
75.220, 4.370
75.230, 2.354
75.240, 3.352
75.250, 2.350
75.260, 4.349
75.270, 5.347
75.280, 8.345
75.290, 4.343
75.300, 4.341
75.310, 2.339
75.320, 4.337
75.330, 3.335
75.340, 5.195
75.350, 6.193
75.360, 5.191
75.370, 3.189
75.380, 5.187
75.390, 3.184
75.400, 4.182
75.410, 7.180
75.420, 6.178
75.430, 6.176
75.440, 10.162
75.450, 6.160
75.460, 0.843
75.470, 1.155
75.480, 0.143
75.490, 1.140
75.500, 2.066
75.510, 4.063
75.520, 3.060
75.530, 2.058
75.540, 3.984
75.550, 3.983
75.560, 3.981
75.570, 0.971
75.580, 7.969
75.590, 1.033
75.600, 3.965
75.610, 3.962
75.620, 9.960
75.630, 4.957
75.640, 2.955
75.650, 4.953
75.660, 4.950
75.670, 0.052
75.680, 7.966
75.690, 1.963
75.700, 3.830
75.710, 4.828
75.720, 1.826
75.730, 0.824
75.740, 0.815
75.750, 2.813
75.760, 1.811
75.770, 0.191
75.780, 4.807
75.790, 1.195
75.800, 0.803
75.810, 7.800
75.820, 5.797
75.830, 0.205
75.840, 2.792
75.850, 5.789
75.860, 2.217
75.870, 5.779
75.880, 1.225
75.890, 0.770
75.900, 3.766
75.910, 0.761
75.920, 0.757
75.930, 1.752
75.940, 3.748
75.950, 4.743
75.960, 1.262
75.970, 1.732
75.980, 5.727
75.990, 1.722
76.000, 0.717
76.010, 11.712
76.020, 3.706
76.030, 4.700
76.040, 5.696
76.050, 4.691
76.060, 2.687
76.070, 5.682
76.080, 6.678
76.090, 4.673
76.100, 5.669
76.110, 2.664
76.120, 2.660
76.130, 1.344
76.140, 5.650
76.150, 5.645
76.160, 6.640
76.170, 1.635
76.180, 4.629
76.190, 9.624
76.200, 3.619
76.210, 4.614
76.220, 6.609
76.230, 4.604
76.240, 4.599
76.250, 3.594
76.260, 10.535
76.270, 5.530
76.280, 11.525
76.290, 10.520
76.300, 7.516
76.310, 4.511
76.320, 12.506
76.330, 8.502
76.340, 5.497
76.350, 5.494
76.360, 7.490
76.370, 4.486
76.380, 3.482
76.390, 6.478
76.400, 5.475
76.410, 4.471
76.420, 4.468
76.430, 7.464
76.440, 4.461
76.450, 11.457
76.460, 3.454
76.470, 3.450
76.480, 0.447
76.490, 8.444
76.500, 7.441
76.510, 1.437
76.520, 9.434
76.530, 7.431
76.540, 6.429
76.550, 3.427
76.560, 5.424
76.570, 7.422
76.580, 9.420
76.590, 3.418
76.600, 1.416
76.610, 0.414
76.620, 2.413
76.630, 3.419
76.640, 7.417
76.650, 5.415
76.660, 1.351
76.670, 6.350
76.680, 4.347
76.690, 11.346
76.700, 13.345
76.710, 5.344
76.720, 3.472
76.730, 1.471
76.740, 5.599
76.750, 2.601
76.760, 3.601
76.770, 1.601
76.780, 5.601
76.790, 1.532
76.800, 5.532
76.810, 1.532
76.820, 1.532
76.830, 4.532
76.840, 4.532
76.850, 12.534
76.860, 6.534
76.870, 0.472
76.880, 3.528
76.890, 4.528
76.900, 6.529
76.910, 0.530
76.920, 7.592
76.930, 4.593
76.940, 1.594
76.950, 4.595
76.960, 2.596
76.970, 2.586
76.980, 5.587
76.990, 3.514
77.000, 1.515
77.010, 0.516
77.020, 12.517
77.030, 6.507
77.040, 10.508
77.050, 7.510
77.060, 7.373
77.070, 9.375
77.080, 16.301
77.090, 13.303
77.100, 22.304
77.110, 20.306
77.120, 10.308
77.130, 19.311
77.140, 19.313
77.150, 22.315
77.160, 18.240
77.170, 16.243
77.180, 13.245
77.190, 21.248
77.200, 20.250
77.210, 16.253
77.220, 8.371
77.230, 12.374
77.240, 14.376
77.250, 15.379
77.260, 5.382
77.270, 3.385
77.280, 6.388
77.290, 13.390
77.300, 14.393
77.310, 9.396
77.320, 10.399
77.330, 14.323
77.340, 12.326
77.350, 5.329
77.360, 8.332
77.370, 15.336
77.380, 11.339
77.390, 15.342
77.400, 5.346
77.410, 14.349
77.420, 9.353
77.430, 12.356
77.440, 6.360
77.450, 6.364
77.460, 3.368
77.470, 8.372
77.480, 7.376
77.490, 4.381
77.500, 9.385
77.510, 8.389
77.520, 4.440
77.530, 4.444
77.540, 7.557
77.550, 4.562
77.560, 4.567
77.570, 6.571
77.580, 1.576
77.590, 9.581
77.600, 3.585
77.610, 3.590
77.620, 0.595
77.630, 1.600
77.640, 2.605
77.650, 3.610
77.660, 1.615
77.670, 2.620
77.680, 2.625
77.690, 2.630
77.700, 2.635
77.710, 3.684
77.720, 3.689
77.730, 3.695
77.740, 1.700
77.750, 6.706
77.760, 2.711
77.770, 0.759
77.780, 4.764
77.790, 0.770
77.800, 2.775
77.810, 1.781
77.820, 0.213
77.830, 2.794
77.840, 1.800
77.850, 2.806
77.860, 7.812
77.870, 0.819
77.880, 9.862
77.890, 0.869
77.900, 0.913
77.910, 2.081
77.920, 3.925
77.930, 2.070
77.940, 0.066
77.950, 3.939
77.960, 3.943
77.970, 2.947
77.980, 3.952
77.990, 6.956
78.000, 1.961
78.010, 3.966
78.020, 1.971
78.030, 4.975
78.040, 0.020
78.050, 9.031
78.060, 6.036
78.070, 4.020
78.080, 4.025
78.090, 7.029
78.100, 3.034
78.110, 0.961
78.120, 9.043
78.130, 7.047
78.140, 4.051
78.150, 3.055
78.160, 3.059
78.170, 3.063
78.180, 8.067
78.190, 1.072
78.200, 7.077
78.210, 5.082
78.220, 2.087
78.230, 4.091
78.240, 7.096
78.250, 3.102
78.260, 0.108
78.270, 2.113
78.280, 1.119
78.290, 6.172
78.300, 4.178
78.310, 5.184
78.320, 6.190
78.330, 6.196
78.340, 4.201
78.350, 0.207
78.360, 1.214
78.370, 3.220
78.380, 6.226
78.390, 3.232
78.400, 0.238
78.410, 1.756
78.420, 4.249
78.430, 5.254
78.440, 2.260
78.450, 6.265
78.460, 3.270
78.470, 1.276
78.480, 4.280
78.490, 1.285
78.500, 5.290
78.510, 7.295
78.520, 1.299
78.530, 1.304
78.540, 4.311
78.550, 2.315
78.560, 6.320
78.570, 8.325
78.580, 4.330
78.590, 6.335
78.600, 1.339
78.610, 6.344
78.620, 5.348
78.630, 1.353
78.640, 3.358
78.650, 4.362
78.660, 1.368
78.670, 2.432
78.680, 0.437
78.690, 6.441
78.700, 4.445
78.710, 0.550
78.720, 6.453
78.730, 1.543
78.740, 1.460
78.750, 5.462
78.760, 3.465
78.770, 2.467
78.780, 6.470
78.790, 2.472
78.800, 4.475
78.810, 6.477
78.820, 3.479
78.830, 4.489
78.840, 5.491
78.850, 0.494
78.860, 5.496
78.870, 4.498
78.880, 1.509
78.890, 1.511
78.900, 0.477
78.910, 2.524
78.920, 2.538
78.930, 1.540
78.940, 0.541
78.950, 4.542
78.960, 0.443
78.970, 2.558
78.980, 2.558
78.990, 4.559
79.000, 5.639
79.010, 2.720
79.020, 1.712
79.030, 6.713
79.040, 5.713
79.050, 2.713
79.060, 2.713
79.070, 0.267
79.080, 1.733
79.090, 0.268
79.100, 3.731
79.110, 4.602
79.120, 4.601
79.130, 4.472
79.140, 3.468
79.150, 3.467
79.160, 2.466
79.170, 3.464
79.180, 3.463
79.190, 0.461
79.200, 3.460
79.210, 4.458
79.220, 4.457
79.230, 1.455
79.240, 0.518
79.250, 0.480
79.260, 4.477
79.270, 4.475
79.280, 9.473
79.290, 5.471
79.300, 6.468
79.310, 3.405
79.320, 1.403
79.330, 1.400
79.340, 7.397
79.350, 3.395
79.360, 4.392
79.370, 3.389
79.380, 3.486
79.390, 4.483
79.400, 3.480
79.410, 3.477
79.420, 5.474
79.430, 2.510
79.440, 0.507
79.450, 3.504
79.460, 1.500
79.470, 3.497
79.480, 0.506
79.490, 4.490
79.500, 0.486
79.510, 3.482
79.520, 3.478
79.530, 4.474
79.540, 5.469
79.550, 0.465
79.560, 2.460
79.570, 1.456
79.580, 0.452
79.590, 4.447
79.600, 2.490
79.610, 2.369
79.620, 3.365
79.630, 0.360
79.640, 1.355
79.650, 2.350
79.660, 0.346
79.670, 1.341
79.680, 1.336
79.690, 8.331
79.700, 3.326
79.710, 2.321
79.720, 10.315
79.730, 0.310
79.740, 3.305
79.750, 3.300
79.760, 4.294
79.770, 4.289
79.780, 1.283
79.790, 1.278
79.800, 4.272
79.810, 1.266
79.820, 1.261
79.830, 4.255
79.840, 3.249
79.850, 0.243
79.860, 0.763
79.870, 3.231
79.880, 2.224
79.890, 4.217
79.900, 4.211
79.910, 1.158
79.920, 4.151
79.930, 4.036
79.940, 4.029
79.950, 1.023
79.960, 1.016
79.970, 3.009
79.980, 5.002
79.990, 2.995
80.000, 4.988
80.010, 4.981
80.020, 0.026
80.030, 3.967
80.040, 5.960
80.050, 2.952
80.060, 3.945
80.070, 0.062
80.080, 1.931
80.090, 0.076
80.100, 1.873
80.110, 0.135
80.120, 5.858
80.130, 0.851
80.140, 2.843
80.150, 0.165
80.160, 2.785
80.170, 2.778
80.180, 1.770
80.190, 1.238
80.200, 1.246
80.210, 2.745
80.220, 2.736
80.230, 1.726
80.240, 2.717
80.250, 4.708
80.260, 0.301
80.270, 2.653
80.280, 4.643
80.290, 1.597
80.300, 1.587
80.310, 3.578
80.320, 8.569
80.330, 1.561
80.340, 5.554
80.350, 1.546
80.360, 2.538
80.370, 5.530
80.380, 4.522
80.390, 0.514
80.400, 3.506
80.410, 2.498
80.420, 7.490
80.430, 0.517
80.440, 1.428
80.450, 2.420
80.460, 6.412
80.470, 2.405
80.480, 1.397
80.490, 2.389
80.500, 1.381
80.510, 3.374
80.520, 4.367
80.530, 1.361
80.540, 2.354
80.550, 2.347
80.560, 3.340
80.570, 1.666
80.580, 1.326
80.590, 0.318
80.600, 0.311
80.610, 2.303
80.620, 0.704
80.630, 5.288
80.640, 2.280
80.650, 3.272
80.660, 2.264
80.670, 0.257
80.680, 6.201
80.690, 0.194
80.700, 2.186
80.710, 3.178
80.720, 2.170
80.730, 1.163
80.740, 5.155
80.750, 2.147
80.760, 7.139
80.770, 0.132
80.780, 2.123
80.790, 0.884
80.800, 5.108
80.810, 2.100
80.820, 5.108
80.830, 7.114
80.840, 4.107
80.850, 1.100
80.860, 7.091
80.870, 5.084
80.880, 4.077
80.890, 8.069
80.900, 4.062
80.910, 5.055
80.920, 5.047
80.930, 6.039
80.940, 9.032
80.950, 6.024
80.960, 7.017
80.970, 6.010
80.980, 5.003
80.990, 6.997
81.000, 5.990
81.010, 0.017
81.020, 3.976
81.030, 2.970
81.040, 7.963
81.050, 1.954
81.060, 3.888
81.070, 0.897
81.080, 1.890
81.090, 0.884
81.100, 5.877
81.110, 6.871
81.120, 2.865
81.130, 3.874
81.140, 1.868
81.150, 4.863
81.160, 3.857
81.170, 5.852
81.180, 7.846
81.190, 8.841
81.200, 5.835
81.210, 3.830
81.220, 3.817
81.230, 5.812
81.240, 4.807
81.250, 5.801
81.260, 2.874
81.270, 3.859
81.280, 9.854
81.290, 4.855
81.300, 2.850
81.310, 5.832
81.320, 2.827
81.330, 8.839
81.340, 4.834
81.350, 9.815
81.360, 8.810
81.370, 2.806
81.380, 10.801
81.390, 1.717
81.400, 6.632
81.410, 9.627
81.420, 7.623
81.430, 4.618
81.440, 8.614
81.450, 12.610
81.460, 10.585
81.470, 10.581
81.480, 18.577
81.490, 6.573
81.500, 8.569
81.510, 19.565
81.520, 17.705
81.530, 16.702
81.540, 13.698
81.550, 14.694
81.560, 10.690
81.570, 7.687
81.580, 6.683
81.590, 9.680
81.600, 8.676
81.610, 20.672
81.620, 7.688
81.630, 6.655
81.640, 5.734
81.650, 9.731
81.660, 13.728
81.670, 3.724
81.680, 8.721
81.690, 7.718
81.700, 2.798
81.710, 18.879
81.720, 6.876
81.730, 11.873
81.740, 6.869
81.750, 11.866
81.760, 13.885
81.770, 10.782
81.780, 9.779
81.790, 5.776
81.800, 3.773
81.810, 14.792
81.820, 4.750
81.830, 1.770
81.840, 3.767
81.850, 7.764
81.860, 8.785
81.870, 6.782
81.880, 3.779
81.890, 1.776
81.900, 3.774
81.910, 2.771
81.920, 2.769
81.930, 5.766
81.940, 3.764
81.950, 3.761
81.960, 9.759
81.970, 11.756
81.980, 6.754
81.990, 7.728
82.000, 5.726
82.010, 0.276
82.020, 0.279
82.030, 3.719
82.040, 9.716
82.050, 4.713
82.060, 7.711
82.070, 1.708
82.080, 10.706
82.090, 9.703
82.100, 3.701
82.110, 4.698
82.120, 3.696
82.130, 4.693
82.140, 3.691
82.150, 8.689
82.160, 3.777
82.170, 2.774
82.180, 7.772
82.190, 1.770
82.200, 3.768
82.210, 0.766
82.220, 5.764
82.230, 1.762
82.240, 5.760
82.250, 4.758
82.260, 0.243
82.270, 3.755
82.280, 4.754
82.290, 5.841
82.300, 7.840
82.310, 3.838
82.320, 0.163
82.330, 4.835
82.340, 2.833
82.350, 7.832
82.360, 7.830
82.370, 7.829
82.380, 1.827
82.390, 6.826
82.400, 2.824
82.410, 0.822
82.420, 2.821
82.430, 2.820
82.440, 1.818
82.450, 1.183
82.460, 3.815
82.470, 6.813
82.480, 0.189
82.490, 5.808
82.500, 7.806
82.510, 3.804
82.520, 0.198
82.530, 2.800
82.540, 1.798
82.550, 3.796
82.560, 8.794
82.570, 2.792
82.580, 4.790
82.590, 7.789
82.600, 3.787
82.610, 2.786
82.620, 0.785
82.630, 4.784
82.640, 1.782
82.650, 4.781
82.660, 6.780
82.670, 1.779
82.680, 0.778
82.690, 2.777
82.700, 5.776
82.710, 2.225
82.720, 0.773
82.730, 3.771
82.740, 2.769
82.750, 1.766
82.760, 1.764
82.770, 1.762
82.780, 7.760
82.790, 0.758
82.800, 0.756
82.810, 0.246
82.820, 2.752
82.830, 1.250
82.840, 0.747
82.850, 7.745
82.860, 0.742
82.870, 2.739
82.880, 3.737
82.890, 1.266
82.900, 1.269
82.910, 4.727
82.920, 2.723
82.930, 0.720
82.940, 0.717
82.950, 0.287
82.960, 4.710
82.970, 2.706
82.980, 2.703
82.990, 2.700
83.000, 0.303
83.010, 1.694
83.020, 0.309
83.030, 5.688
83.040, 0.685
83.050, 0.318
83.060, 1.678
83.070, 3.675
83.080, 4.672
83.090, 4.668
83.100, 2.665
83.110, 4.662
83.120, 5.659
83.130, 1.655
83.140, 6.652
83.150, 4.649
83.160, 0.646
83.170, 2.643
83.180, 0.359
83.190, 4.638
83.200, 6.635
83.210, 0.617
83.220, 3.600
83.230, 2.597
83.240, 0.594
83.250, 3.592
83.260, 0.589
83.270, 5.587
83.280, 1.585
83.290, 1.582
83.300, 0.580
83.310, 0.578
83.320, 4.576
83.330, 0.573
83.340, 4.571
83.350, 1.431
83.360, 4.566
83.370, 5.563
83.380, 5.560
83.390, 3.658
83.400, 5.655
83.410, 1.652
83.420, 1.649
83.430, 10.647
83.440, 3.644
83.450, 0.641
83.460, 3.623
83.470, 4.620
83.480, 1.383
83.490, 8.614
83.500, 11.612
83.510, 6.609
83.520, 7.593
83.530, 10.591
83.540, 2.588
83.550, 5.586
83.560, 9.584
83.570, 4.582
83.580, 7.580
83.590, 3.577
83.600, 7.575
83.610, 6.573
83.620, 12.572
83.630, 4.570
83.640, 4.568
83.650, 13.488
83.660, 7.486
83.670, 11.485
83.680, 13.467
83.690, 16.466
83.700, 15.464
83.710, 17.463
83.720, 21.445
83.730, 18.444
83.740, 18.443
83.750, 30.441
83.760, 21.440
83.770, 21.439
83.780, 21.438
83.790, 25.436
83.800, 16.435
83.810, 19.434
83.820, 15.433
83.830, 13.432
83.840, 19.431
83.850, 9.431
83.860, 13.430
83.870, 14.429
83.880, 13.428
83.890, 17.428
83.900, 15.427
83.910, 13.283
83.920, 6.282
83.930, 11.282
83.940, 12.281
83.950, 13.281
83.960, 14.296
83.970, 16.296
83.980, 16.296
83.990, 15.296
84.000, 13.295
84.010, 24.276
84.020, 8.275
84.030, 10.193
84.040, 4.193
84.050, 12.193
84.060, 10.193
84.070, 10.193
84.080, 8.193
84.090, 4.110
84.100, 14.026
84.110, 8.162
84.120, 9.163
84.130, 9.163
84.140, 7.164
84.150, 9.142
84.160, 6.152
84.170, 2.153
84.180, 5.153
84.190, 7.162
84.200, 3.140
84.210, 7.141
84.220, 3.119
84.230, 8.120
84.240, 5.122
84.250, 6.100
84.260, 3.101
84.270, 5.102
84.280, 6.103
84.290, 6.105
84.300, 2.106
84.310, 1.108
84.320, 3.112
84.330, 6.114
84.340, 0.116
84.350, 6.180
84.360, 1.181
84.370, 6.183
84.380, 0.160
84.390, 7.162
84.400, 2.164
84.410, 4.166
84.420, 4.168
84.430, 9.171
84.440, 6.232
84.450, 6.234
84.460, 6.237
84.470, 6.239
84.480, 7.242
84.490, 2.245
84.500, 5.247
84.510, 4.250
84.520, 4.253
84.530, 7.256
84.540, 1.259
84.550, 4.171
84.560, 4.175
84.570, 3.178
84.580, 1.819
84.590, 6.183
84.600, 1.186
84.610, 4.188
84.620, 4.191
84.630, 6.193
84.640, 3.196
84.650, 4.199
84.660, 6.201
84.670, 2.204
84.680, 12.231
84.690, 7.234
84.700, 4.350
84.710, 4.353
84.720, 4.356
84.730, 5.359
84.740, 4.363
84.750, 9.366
84.760, 6.370
84.770, 3.373
84.780, 10.377
84.790, 10.424
84.800, 5.428
84.810, 5.432
84.820, 5.436
84.830, 14.440
84.840, 13.444
84.850, 3.449
84.860, 10.494
84.870, 6.498
84.880, 13.503
84.890, 4.508
84.900, 6.513
84.910, 4.517
84.920, 8.522
84.930, 3.527
84.940, 6.533
84.950, 2.538
84.960, 7.543
84.970, 4.548
84.980, 3.553
84.990, 5.559
85.000, 2.564
85.010, 5.569
85.020, 9.608
85.030, 11.614
85.040, 8.619
85.050, 7.625
85.060, 6.630
85.070, 3.636
85.080, 4.642
85.090, 7.647
85.100, 8.653
85.110, 8.660
85.120, 5.667
85.130, 4.674
85.140, 3.681
85.150, 0.312
85.160, 3.695
85.170, 2.702
85.180, 0.709
85.190, 1.716
85.200, 2.723
85.210, 4.730
85.220, 1.737
85.230, 0.745
85.240, 5.752
85.250, 1.760
85.260, 2.768
85.270, 5.776
85.280, 4.783
85.290, 2.792
85.300, 2.199
85.310, 2.808
85.320, 2.816
85.330, 2.824
85.340, 4.831
85.350, 0.141
85.360, 5.867
85.370, 3.875
85.380, 0.118
85.390, 1.890
85.400, 2.898
85.410, 2.906
85.420, 3.914
85.430, 1.923
85.440, 1.931
85.450, 5.939
85.460, 4.948
85.470, 0.956
85.480, 2.965
85.490, 2.974
85.500, 0.982
85.510, 0.009
85.520, 4.000
85.530, 1.008
85.540, 0.983
85.550, 5.025
85.560, 2.034
85.570, 4.042
85.580, 2.050
85.590, 1.059
85.600, 1.067
85.610, 1.076
85.620, 2.084
85.630, 0.907
85.640, 3.111
85.650, 0.119
85.660, 2.127
85.670, 3.135
85.680, 0.144
85.690, 1.152
85.700, 1.166
85.710, 2.175
85.720, 1.183
85.730, 4.192
85.740, 3.201
85.750, 2.210
85.760, 1.219
85.770, 3.228
85.780, 1.136
85.790, 4.145
85.800, 3.154
85.810, 2.164
85.820, 6.173
85.830, 2.182
85.840, 4.191
85.850, 2.200
85.860, 2.209
85.870, 1.781
85.880, 2.227
85.890, 1.764
85.900, 0.244
85.910, 2.252
85.920, 0.264
85.930, 4.272
85.940, 2.279
85.950, 0.287
85.960, 7.295
85.970, 3.305
85.980, 0.623
85.990, 4.384
86.000, 3.392
86.010, 4.400
86.020, 2.407
86.030, 4.415
86.040, 2.423
86.050, 0.570
86.060, 3.438
86.070, 1.445
86.080, 6.453
86.090, 5.460
86.100, 0.467
86.110, 1.475
86.120, 1.482
86.130, 4.490
86.140, 1.498
86.150, 2.507
86.160, 2.514
86.170, 0.522
86.180, 5.529
86.190, 6.537
86.200, 2.544
86.210, 0.448
86.220, 2.559
86.230, 2.566
86.240, 1.573
86.250, 1.581
86.260, 2.588
86.270, 4.595
86.280, 2.602
86.290, 3.610
86.300, 2.735
86.310, 2.742
86.320, 1.750
86.330, 3.758
86.340, 6.766
86.350, 3.757
86.360, 1.764
86.370, 0.773
86.380, 2.780
86.390, 2.787
86.400, 2.795
86.410, 4.802
86.420, 5.809
86.430, 0.817
86.440, 4.824
86.450, 7.831
86.460, 2.838
86.470, 8.846
86.480, 8.901
86.490, 6.909
86.500, 3.780
86.510, 1.788
86.520, 4.795
86.530, 2.802
86.540, 0.190
86.550, 1.808
86.560, 6.815
86.570, 2.822
86.580, 5.822
86.590, 5.829
86.600, 1.836
86.610, 6.843
86.620, 10.850
86.630, 1.857
86.640, 1.864
86.650, 5.911
86.660, 3.919
86.670, 3.926
86.680, 0.933
86.690, 3.941
86.700, 2.948
86.710, 5.952
86.720, 2.960
86.730, 8.967
86.740, 4.913
86.750, 5.920
86.760, 8.927
86.770, 4.934
86.780, 6.942
86.790, 1.949
86.800, 2.956
86.810, 1.963
86.820, 1.971
86.830, 0.047
86.840, 4.960
86.850, 1.967
86.860, 3.974
86.870, 4.014
86.880, 3.021
86.890, 0.028
86.900, 3.036
86.910, 3.043
86.920, 3.050
86.930, 4.057
86.940, 8.064
86.950, 4.071
86.960, 2.078
86.970, 3.085
86.980, 5.092
86.990, 4.099
87.000, 1.107
87.010, 1.114
87.020, 6.121
87.030, 2.129
87.040, 1.136
87.050, 3.144
87.060, 3.151
87.070, 2.045
87.080, 7.052
87.090, 2.947
87.100, 0.954
87.110, 0.038
87.120, 0.969
87.130, 0.976
87.140, 0.984
87.150, 3.991
87.160, 0.023
87.170, 0.970
87.180, 3.993
87.190, 2.999
87.200, 1.006
87.210, 4.013
87.220, 4.019
87.230, 3.027
87.240, 3.033
87.250, 2.000
87.260, 3.007
87.270, 1.013
87.280, 3.020
87.290, 1.027
87.300, 9.034
87.310, 3.041
87.320, 1.048
87.330, 0.054
87.340, 0.061
87.350, 1.068
87.360, 6.074
87.370, 3.081
87.380, 2.088
87.390, 2.095
87.400, 2.102
87.410, 4.074
87.420, 4.081
87.430, 2.088
87.440, 1.095
87.450, 3.101
87.460, 2.108
87.470, 4.115
87.480, 4.121
87.490, 1.872
87.500, 2.134
87.510, 0.139
87.520, 3.163
87.530, 0.169
87.540, 4.174
87.550, 3.180
87.560, 0.186
87.570, 4.191
87.580, 6.197
87.590, 5.203
87.600, 5.208
87.610, 5.214
87.620, 4.219
87.630, 2.226
87.640, 3.231
87.650, 3.236
87.660, 2.242
87.670, 0.752
87.680, 2.271
87.690, 5.276
87.700, 4.282
87.710, 8.288
87.720, 6.293
87.730, 2.299
87.740, 2.286
87.750, 2.292
87.760, 3.298
87.770, 1.303
87.780, 2.309
87.790, 1.316
87.800, 5.321
87.810, 7.327
87.820, 6.333
87.830, 5.338
87.840, 0.578
87.850, 2.427
87.860, 3.432
87.870, 2.437
87.880, 9.443
87.890, 6.448
87.900, 5.453
87.910, 2.458
87.920, 1.464
87.930, 0.482
87.940, 1.488
87.950, 6.494
87.960, 2.499
87.970, 2.505
87.980, 7.510
87.990, 3.516
88.000, 2.521
88.010, 3.526
88.020, 0.467
88.030, 7.529
88.040, 2.535
88.050, 7.541
88.060, 0.454
88.070, 3.551
88.080, 4.557
88.090, 0.557
88.100, 5.562
88.110, 5.569
88.120, 7.574
88.130, 1.580
88.140, 6.594
88.150, 3.600
88.160, 3.605
88.170, 2.611
88.180, 2.616
88.190, 3.621
88.200, 2.627
88.210, 3.634
88.220, 3.639
88.230, 0.644
88.240, 5.650
88.250, 6.655
88.260, 1.660
88.270, 5.666
88.280, 1.672
88.290, 2.678
88.300, 3.684
88.310, 3.686
88.320, 1.693
88.330, 0.698
88.340, 0.704
88.350, 0.291
88.360, 5.713
88.370, 1.655
88.380, 1.674
88.390, 3.679
88.400, 2.685
88.410, 5.704
88.420, 0.722
88.430, 3.728
88.440, 0.746
88.450, 4.754
88.460, 3.760
88.470, 4.765
88.480, 5.771
88.490, 3.776
88.500, 0.782
88.510, 6.790
88.520, 1.795
88.530, 2.800
88.540, 4.804
88.550, 3.810
88.560, 4.815
88.570, 0.821
88.580, 1.829
88.590, 3.834
88.600, 4.842
88.610, 1.866
88.620, 4.871
88.630, 3.875
88.640, 1.879
88.650, 5.883
88.660, 3.887
88.670, 6.891
88.680, 2.895
88.690, 1.781
88.700, 1.785
88.710, 0.213
88.720, 3.790
88.730, 3.791
88.740, 1.794
88.750, 3.805
88.760, 3.808
88.770, 2.808
88.780, 9.808
88.790, 6.815
88.800, 4.813
88.810, 1.794
88.820, 0.803
88.830, 4.812
88.840, 2.772
88.850, 1.781
88.860, 0.790
88.870, 0.202
88.880, 1.808
88.890, 7.817
88.900, 6.826
88.910, 1.835
88.920, 3.844
88.930, 0.808
88.940, 2.817
88.950, 2.825
88.960, 2.833
88.970, 2.840
88.980, 0.848
88.990, 2.856
89.000, 5.865
89.010, 2.873
89.020, 3.840
89.030, 1.152
89.040, 2.815
89.050, 5.822
89.060, 3.830
89.070, 3.837
89.080, 5.845
89.090, 3.852
89.100, 5.860
89.110, 5.867
89.120, 0.126
89.130, 8.881
89.140, 4.889
89.150, 4.896
89.160, 5.904
89.170, 1.910
89.180, 3.882
89.190, 2.890
89.200, 2.898
89.210, 0.905
89.220, 2.912
89.230, 2.918
89.240, 3.926
89.250, 5.933
89.260, 2.939
89.270, 5.946
89.280, 1.954
89.290, 1.960
89.300, 0.967
89.310, 4.974
89.320, 4.981
89.330, 0.012
89.340, 1.994
89.350, 2.002
89.360, 4.978
89.370, 1.986
89.380, 7.995
89.390, 3.003
89.400, 1.012
89.410, 4.021
89.420, 4.028
89.430, 6.038
89.440, 5.008
89.450, 6.017
89.460, 6.027
89.470, 3.034
89.480, 3.044
89.490, 5.054
89.500, 3.061
89.510, 4.071
89.520, 4.890
89.530, 4.897
89.540, 4.905
89.550, 8.912
89.560, 6.919
89.570, 0.111
89.580, 3.895
89.590, 3.901
89.600, 0.092
89.610, 0.089
89.620, 4.917
89.630, 0.077
89.640, 0.929
89.650, 5.935
89.660, 5.936
89.670, 3.908
89.680, 3.912
89.690, 3.917
89.700, 0.921
89.710, 6.918
89.720, 3.921
89.730, 1.925
89.740, 6.929
89.750, 2.931
89.760, 4.933
89.770, 0.942
89.780, 4.952
89.790, 0.885
89.800, 0.107
89.810, 1.738
89.820, 1.654
89.830, 3.631
89.840, 5.621
89.850, 2.611
89.860, 2.578
89.870, 2.561
89.880, 2.540
89.890, 1.486
89.900, 2.421
89.910, 1.162
89.920, 3.116
89.930, 1.060
89.940, 0.007
89.950, 0.903
89.960, 2.797
89.970, 6.672
89.980, 0.003
89.990, 0.517
90.000, 0.000
##END=



